Time,Accel-X (g), Accel-Y (g), Accel-Z (g)
25:17.7,-0.109375,-0.078125,0.963379
25:17.7,-0.109375,-0.078125,0.950684
25:17.7,-0.109375,-0.078125,0.951904
25:17.7,-0.109375,-0.078125,0.959473
25:17.7,-0.109375,-0.078125,0.9646
25:17.7,-0.109375,-0.078125,0.957275
25:17.7,-0.109375,-0.078125,0.965576
25:17.8,-0.109375,-0.078125,0.950684
25:17.8,-0.109375,-0.078125,0.953125
25:17.8,-0.109375,-0.078125,0.953125
25:17.8,-0.109375,-0.078125,0.953125
25:17.8,-0.109375,-0.078125,0.953125
25:17.8,-0.109375,-0.078125,0.953125
25:17.8,-0.109375,-0.078125,0.953125
25:17.8,-0.109375,-0.078125,0.953125
25:17.8,-0.109375,-0.078125,0.953125
25:17.8,-0.109375,-0.078125,0.953125
25:17.9,-0.109375,-0.078125,0.95166
25:17.9,-0.10791,-0.078125,0.959961
25:17.9,-0.11499,-0.078125,0.965088
25:17.9,-0.127197,-0.078125,0.949463
25:17.9,-0.126221,-0.078125,0.95874
25:17.9,-0.119141,-0.078125,0.972168
25:17.9,-0.106934,-0.078125,0.962646
25:17.9,-0.10791,-0.078125,0.950684
25:17.9,-0.115234,-0.079346,0.95166
25:17.9,-0.128662,-0.072021,0.960449
25:18.0,-0.118896,-0.058594,0.964844
25:18.0,-0.106934,-0.068359,0.950684
25:18.0,-0.109375,-0.080322,0.95166
25:18.0,-0.109375,-0.078125,0.958984
25:18.0,-0.10791,-0.078125,0.972412
25:18.0,-0.116943,-0.078125,0.962402
25:18.0,-0.12085,-0.078125,0.950684
25:18.0,-0.106934,-0.078125,0.951416
25:18.0,-0.109375,-0.078125,0.959229
25:18.0,-0.109375,-0.078125,0.972412
25:18.1,-0.109375,-0.078125,0.962402
25:18.1,-0.109375,-0.078125,0.949219
25:18.1,-0.109375,-0.078125,0.960938
25:18.1,-0.109375,-0.078125,0.964355
25:18.1,-0.109375,-0.078125,0.950684
25:18.1,-0.109375,-0.078125,0.953125
25:18.1,-0.109375,-0.078125,0.953125
25:18.1,-0.109375,-0.078125,0.953125
25:18.1,-0.109375,-0.078125,0.951416
25:18.1,-0.109375,-0.078125,0.961182
25:18.2,-0.109375,-0.078125,0.964111
25:18.2,-0.109375,-0.078125,0.950928
25:18.2,-0.109375,-0.078125,0.953125
25:18.2,-0.109375,-0.078125,0.953125
25:18.2,-0.109375,-0.078125,0.953125
25:18.2,-0.109375,-0.078125,0.951416
25:18.2,-0.109375,-0.078125,0.961426
25:18.2,-0.109375,-0.078125,0.963867
25:18.2,-0.109375,-0.078125,0.949219
25:18.2,-0.109375,-0.078125,0.96167
25:18.3,-0.109375,-0.07959,0.963867
25:18.3,-0.109375,-0.069336,0.950928
25:18.3,-0.109375,-0.067139,0.953125
25:18.3,-0.109375,-0.080078,0.953125
25:18.3,-0.109375,-0.078125,0.953125
25:18.3,-0.109375,-0.078125,0.951172
25:18.3,-0.109375,-0.078125,0.961914
25:18.3,-0.107422,-0.079834,0.963623
25:18.3,-0.118164,-0.069092,0.950928
25:18.3,-0.119873,-0.067383,0.953125
25:18.4,-0.107178,-0.080078,0.953125
25:18.4,-0.109375,-0.078125,0.951172
25:18.4,-0.109375,-0.078125,0.960205
25:18.4,-0.109375,-0.078125,0.970703
25:18.4,-0.109375,-0.078125,0.970459
25:18.4,-0.109375,-0.078125,0.961182
25:18.4,-0.109375,-0.078125,0.950928
25:18.4,-0.109375,-0.078125,0.953125
25:18.4,-0.109375,-0.078125,0.951172
25:18.4,-0.109375,-0.078125,0.960449
25:18.5,-0.109375,-0.078125,0.972412
25:18.5,-0.109375,-0.078125,0.959229
25:18.5,-0.109375,-0.079834,0.958496
25:18.5,-0.109375,-0.068359,0.972412
25:18.5,-0.109375,-0.070068,0.960938
25:18.5,-0.109375,-0.070313,0.950928
25:18.5,-0.109375,-0.070068,0.953125
25:18.5,-0.109375,-0.070313,0.953125
25:18.5,-0.107422,-0.068115,0.953125
25:18.5,-0.119141,-0.079834,0.953125
25:18.6,-0.118896,-0.078125,0.953125
25:18.6,-0.107422,-0.078125,0.953125
25:18.6,-0.107178,-0.080078,0.953125
25:18.6,-0.117188,-0.068115,0.953125
25:18.6,-0.128662,-0.068359,0.953125
25:18.6,-0.114746,-0.079834,0.953125
25:18.6,-0.117432,-0.078125,0.950928
25:18.6,-0.118652,-0.078125,0.963135
25:18.6,-0.105469,-0.078125,0.962402
25:18.6,-0.117432,-0.080078,0.951172
25:18.7,-0.126709,-0.067871,0.950928
25:18.7,-0.126953,-0.068604,0.963135
25:18.7,-0.114502,-0.079834,0.960205
25:18.7,-0.117676,-0.078125,0.961426
25:18.7,-0.116455,-0.078125,0.962158
25:18.7,-0.11792,-0.078125,0.951172
25:18.7,-0.118408,-0.078125,0.953125
25:18.7,-0.105469,-0.078125,0.953125
25:18.7,-0.119873,-0.078125,0.953125
25:18.7,-0.118164,-0.078125,0.953125
25:18.8,-0.105469,-0.080078,0.953125
25:18.8,-0.119873,-0.067383,0.950928
25:18.8,-0.118164,-0.069092,0.961426
25:18.8,-0.107422,-0.079834,0.972412
25:18.8,-0.107178,-0.078125,0.959961
25:18.8,-0.120117,-0.078125,0.951172
25:18.8,-0.11792,-0.078125,0.953125
25:18.8,-0.107422,-0.078125,0.950928
25:18.8,-0.109375,-0.078125,0.963867
25:18.8,-0.109375,-0.078125,0.959473
25:18.9,-0.109375,-0.078125,0.960205
25:18.9,-0.107178,-0.075928,0.966064
25:18.9,-0.118164,-0.084717,0.984131
25:18.9,-0.12207,-0.104248,1.01416
25:18.9,-0.14917,-0.115234,1.010498
25:18.9,-0.130371,-0.089111,0.982666
25:18.9,-0.115479,-0.085938,1.009521
25:18.9,-0.11084,-0.081787,1.031494
25:18.9,-0.13916,-0.090088,1.033691
25:18.9,-0.125,-0.130615,1.120117
25:19.0,-0.192383,-0.143799,1.208252
25:19.0,-0.284912,-0.122803,1.248535
25:19.0,-0.223145,-0.216064,1.487061
25:19.0,-0.12085,-0.277588,1.585205
25:19.0,-0.072021,-0.222656,1.415039
25:19.0,-0.042969,-0.14624,1.173096
25:19.0,-0.020996,-0.05957,0.994141
25:19.0,-0.004639,-0.00708,0.88501
25:19.0,0.003662,0.007813,0.8479
25:19.0,-0.004639,0.033447,0.873047
25:19.1,-0.033447,0.05249,0.866455
25:19.1,-0.054688,0.089844,0.796143
25:19.1,-0.07373,0.127686,0.778809
25:19.1,-0.127686,0.114014,0.927734
25:19.1,-0.195068,0.059814,1.069824
25:19.1,-0.192627,0.045166,1.005859
25:19.1,-0.158691,0.090332,0.926025
25:19.1,-0.10376,0.116211,0.92749
25:19.1,-0.05542,0.148438,0.843506
25:19.1,-0.031982,0.200439,0.711182
25:19.2,-0.030273,0.237549,0.627686
25:19.2,-0.080322,0.269775,0.586426
25:19.2,-0.139404,0.293701,0.567871
25:19.2,-0.175293,0.293457,0.560303
25:19.2,-0.209717,0.314209,0.524414
25:19.2,-0.223633,0.335938,0.40918
25:19.2,-0.213379,0.366943,0.313721
25:19.2,-0.186523,0.367676,0.278564
25:19.2,-0.156006,0.360352,0.251465
25:19.2,-0.112549,0.344727,0.162598
25:19.3,-0.07666,0.360107,-0.01123
25:19.3,-0.031982,0.382813,-0.194092
25:19.3,0.011963,0.435059,-0.397217
25:19.3,-0.056885,0.341797,-0.427734
25:19.3,-0.106689,0.222656,-0.409424
25:19.3,-0.271729,-0.645264,-1.155273
25:19.3,0.689209,3.263184,4.786377
25:19.3,-0.170654,-1.650879,7.999756
25:19.3,-0.122803,-0.190186,-1.099121
25:19.3,0.155762,0.190674,0
25:19.4,0.133057,-0.714355,2.242676
25:19.4,-0.053223,0.250732,0.398193
25:19.4,-0.241455,-0.067383,1.030029
25:19.4,-0.072266,-0.115723,1.036865
25:19.4,-0.099609,-0.0625,0.900146
25:19.4,-0.177979,-0.14624,1.095459
25:19.4,-0.162354,-0.161865,1.155029
25:19.4,-0.166504,-0.143311,1.210205
25:19.4,-0.096436,-0.15918,1.274902
25:19.4,-0.099609,-0.096436,1.233154
25:19.5,-0.15625,-0.178955,1.401855
25:19.5,-0.128662,-0.219727,1.427246
25:19.5,-0.100098,-0.132813,1.206055
25:19.5,-0.075684,-0.042969,0.977295
25:19.5,-0.03418,0.027832,0.780518
25:19.5,-0.043701,0.079346,0.742676
25:19.5,-0.092285,0.052246,0.855713
25:19.5,-0.134033,0.006348,0.974609
25:19.5,-0.142578,-0.00415,1.032227
25:19.5,-0.135986,0.008545,1.006836
25:19.6,-0.162354,0.031982,1.015137
25:19.6,-0.180664,0.003418,1.064209
25:19.6,-0.145752,0.023926,1.036377
25:19.6,-0.088867,0.078125,0.918945
25:19.6,-0.072754,0.123047,0.881592
25:19.6,-0.08667,0.102295,0.90625
25:19.6,-0.105713,0.095947,0.891602
25:19.6,-0.103271,0.143555,0.830566
25:19.6,-0.138184,0.158936,0.869873
25:19.6,-0.178955,0.151611,0.905518
25:19.7,-0.202637,0.174072,0.8479
25:19.7,-0.194824,0.207031,0.747314
25:19.7,-0.17749,0.240723,0.681885
25:19.7,-0.159668,0.260742,0.662354
25:19.7,-0.153076,0.277588,0.639404
25:19.7,-0.169678,0.279785,0.598145
25:19.7,-0.167969,0.285889,0.545654
25:19.7,-0.123291,0.32959,0.441162
25:19.7,-0.093018,0.357422,0.363525
25:19.7,-0.104248,0.362305,0.305664
25:19.8,-0.110107,0.345459,0.244873
25:19.8,-0.115967,0.345459,0.107666
25:19.8,-0.078857,0.404053,-0.133545
25:19.8,-0.039063,0.438721,-0.366455
25:19.8,-0.004639,0.446289,-0.519775
25:19.8,-0.078125,0.333496,-0.523438
25:19.8,-0.139893,0.23584,-0.406738
25:19.8,-0.176758,0.815674,-1.223145
25:19.8,-0.424805,-6.363525,7.031738
25:19.8,-0.109375,-2.274414,3.308838
25:19.9,-0.335693,1.140869,-2.592529
25:19.9,-0.394775,-0.8479,1.84375
25:19.9,0.032715,-0.318848,1.458984
25:19.9,-0.126709,0.225342,0.439209
25:19.9,-0.196289,-0.126953,1.177734
25:19.9,-0.04126,-0.086914,0.966553
25:19.9,-0.117676,-0.066406,0.924316
25:19.9,-0.1875,-0.157959,1.1521
25:19.9,-0.180908,-0.171387,1.184814
25:19.9,-0.134277,-0.107178,1.150635
25:20.0,-0.212158,-0.086914,1.189209
25:20.0,-0.258789,-0.105469,1.295654
25:20.0,-0.125,-0.21167,1.422363
25:20.0,0.000977,-0.157227,1.265137
25:20.0,0.020996,-0.082764,1.036621
25:20.0,0.007324,-0.00293,0.880859
25:20.0,-0.016846,0.047119,0.826172
25:20.0,-0.075439,0.027344,0.92749
25:20.0,-0.130859,-0.003906,1.049316
25:20.0,-0.158447,-0.055908,1.149902
25:20.1,-0.137939,-0.057617,1.135498
25:20.1,-0.088379,-0.014893,1.026611
25:20.1,-0.060059,0.036865,0.958984
25:20.1,-0.084961,0.056885,0.961426
25:20.1,-0.111084,0.082031,0.898193
25:20.1,-0.080566,0.134277,0.814209
25:20.1,-0.100342,0.131348,0.856934
25:20.1,-0.12085,0.109863,0.904053
25:20.1,-0.135986,0.117676,0.89624
25:20.1,-0.149902,0.148682,0.879395
25:20.2,-0.180176,0.167725,0.867432
25:20.2,-0.204834,0.181152,0.828125
25:20.2,-0.181641,0.211426,0.761963
25:20.2,-0.147217,0.232178,0.731689
25:20.2,-0.126953,0.234619,0.759521
25:20.2,-0.124512,0.232422,0.773682
25:20.2,-0.125,0.245361,0.719482
25:20.2,-0.123047,0.259521,0.669922
25:20.2,-0.143311,0.288086,0.623291
25:20.2,-0.10376,0.318115,0.459961
25:20.3,-0.077637,0.36792,0.343262
25:20.3,-0.088867,0.377686,0.305176
25:20.3,-0.105225,0.361816,0.270996
25:20.3,-0.126221,0.355469,0.17041
25:20.3,-0.102295,0.380371,-0.048584
25:20.3,-0.068359,0.432373,-0.296143
25:20.3,-0.045166,0.425049,-0.455322
25:20.3,-0.064453,0.447021,-0.598633
25:20.3,-0.138184,0.24292,-0.476807
25:20.3,-0.25293,-0.05542,-0.424316
25:20.4,0.218506,1.555176,0.912842
25:20.4,-0.816895,-7.79541,7.999756
25:20.4,0.53418,0.717773,-1.090576
25:20.4,-0.32251,0.890625,-0.898926
25:20.4,-0.348877,-0.967529,2.668701
25:20.4,-0.08667,0.017822,0.704102
25:20.4,-0.222656,0.108154,0.689697
25:20.4,-0.135986,-0.174072,1.211182
25:20.4,-0.0271,-0.052002,0.887695
25:20.4,-0.137451,-0.050049,0.918213
25:20.5,-0.173096,-0.118896,1.087891
25:20.5,-0.159912,-0.112061,1.138672
25:20.5,-0.13916,-0.109131,1.13501
25:20.5,-0.1604,-0.10498,1.185059
25:20.5,-0.243896,-0.143311,1.282715
25:20.5,-0.237549,-0.228516,1.486328
25:20.5,-0.085693,-0.220215,1.462646
25:20.5,-0.006592,-0.083496,1.148193
25:20.5,0.01709,-0.008057,0.909668
25:20.5,-0.003662,0.032471,0.875977
25:20.6,-0.093994,-0.007324,1.013184
25:20.6,-0.168701,-0.045166,1.064453
25:20.6,-0.146973,-0.03833,1.024658
25:20.6,-0.109619,0.024902,0.960205
25:20.6,-0.13208,0.036865,1.099854
25:20.6,-0.199707,-0.027588,1.238525
25:20.6,-0.181396,-0.010742,1.101807
25:20.6,-0.104248,0.077881,0.814697
25:20.6,-0.051758,0.180664,0.672607
25:20.6,-0.031006,0.172607,0.756104
25:20.7,-0.041748,0.184814,0.768555
25:20.7,-0.086182,0.200684,0.739258
25:20.7,-0.132324,0.216309,0.703125
25:20.7,-0.197021,0.233154,0.731445
25:20.7,-0.219971,0.233398,0.735596
25:20.7,-0.190918,0.247559,0.719971
25:20.7,-0.173828,0.263428,0.720703
25:20.7,-0.158203,0.280029,0.693848
25:20.7,-0.142578,0.280273,0.633301
25:20.7,-0.128906,0.292725,0.575195
25:20.8,-0.083008,0.337646,0.434082
25:20.8,-0.046875,0.389404,0.374756
25:20.8,-0.073242,0.363281,0.415771
25:20.8,-0.120361,0.331543,0.467529
25:20.8,-0.156006,0.297607,0.44873
25:20.8,-0.130127,0.308838,0.288818
25:20.8,-0.069092,0.354248,0.042236
25:20.8,-0.003906,0.402832,-0.21167
25:20.8,0.015625,0.422607,-0.407959
25:20.8,0.005127,0.400879,-0.518311
25:20.9,-0.085449,0.219971,-0.377686
25:20.9,-0.164063,0.039063,-0.16626
25:20.9,-0.230713,0.366455,0.236572
25:20.9,-1.022949,-8,7.999756
25:20.9,0.357422,0.820313,-0.875977
25:20.9,-0.67041,0.83374,-1.121338
25:20.9,-0.386719,-1.034668,2.810303
25:20.9,-0.005127,0.033203,0.661865
25:20.9,-0.212646,0.119385,0.677002
25:20.9,-0.161621,-0.196045,1.286133
25:21.0,-0.048584,-0.099121,1.026855
25:21.0,-0.09082,-0.03125,0.935547
25:21.0,-0.139404,-0.092285,1.074219
25:21.0,-0.13916,-0.079102,1.078369
25:21.0,-0.200928,-0.044678,1.056396
25:21.0,-0.234131,-0.16748,1.350342
25:21.0,-0.205078,-0.249023,1.500244
25:21.0,-0.127686,-0.220947,1.350098
25:21.0,-0.032715,-0.112793,1.115967
25:21.0,-0.015625,0.013428,0.893311
25:21.1,-0.014648,0.046875,0.889404
25:21.1,-0.092529,0.000244,0.983887
25:21.1,-0.124512,0.015381,0.921631
25:21.1,-0.140137,0.031494,0.998291
25:21.1,-0.187256,-0.030762,1.233398
25:21.1,-0.203125,-0.077881,1.28125
25:21.1,-0.124756,-0.046631,1.109131
25:21.1,-0.046387,0.093994,0.811523
25:21.1,-0.015625,0.156494,0.718262
25:21.1,-0.062988,0.1875,0.734375
25:21.2,-0.125732,0.171387,0.735352
25:21.2,-0.172363,0.140137,0.876709
25:21.2,-0.1875,0.125,0.921631
25:21.2,-0.187256,0.156982,0.875244
25:21.2,-0.171875,0.187012,0.955322
25:21.2,-0.187012,0.139893,1.014893
25:21.2,-0.154541,0.157227,0.917969
25:21.2,-0.106934,0.205078,0.807617
25:21.2,-0.044189,0.251709,0.700928
25:21.2,0,0.281982,0.719482
25:21.3,-0.048828,0.281494,0.73291
25:21.3,-0.080566,0.297607,0.668701
25:21.3,-0.143311,0.313232,0.62207
25:21.3,-0.172119,0.328857,0.572021
25:21.3,-0.154541,0.346191,0.427979
25:21.3,-0.123291,0.409424,0.290283
25:21.3,-0.109375,0.437256,0.247803
25:21.3,-0.125488,0.404297,0.230225
25:21.3,-0.125,0.390381,0.128418
25:21.3,-0.122803,0.408691,-0.081543
25:21.4,-0.075928,0.456543,-0.332275
25:21.4,-0.081543,0.481934,-0.527588
25:21.4,-0.164063,0.39917,-0.582275
25:21.4,-0.259766,0.312744,-0.580566
25:21.4,-0.372803,0.064697,-0.253418
25:21.4,-0.494385,-0.16748,0.620361
25:21.4,-0.276123,-0.165771,4.237793
25:21.4,-0.36377,-7.383301,7.822998
25:21.4,-0.129639,0.27002,0.973145
25:21.4,-0.503906,0.698975,-0.765625
25:21.5,-1.010254,-0.742432,2.456055
25:21.5,-1.077637,-0.973389,3.022949
25:21.5,-0.375,-0.731201,1.469482
25:21.5,0.458496,-0.664795,0.007568
25:21.5,1.083984,-0.635254,-0.655518
25:21.5,1.116943,-0.589355,-0.44458
25:21.5,0.606934,-0.580078,0.508789
25:21.5,-0.089111,-0.568359,1.158936
25:21.5,-0.597168,-0.213623,0.867676
25:21.5,-0.681885,-0.047119,0.542969
25:21.6,-0.449707,0.213867,0.2229
25:21.6,-0.233398,0.535156,0.277832
25:21.6,-0.243652,0.906982,0.645752
25:21.6,-0.156494,1.377686,0.944336
25:21.6,-0.047119,1.900635,1.144287
25:21.6,0.062256,1.9646,1.38916
25:21.6,0.269531,0.643555,0.522217
25:21.6,0.057129,0.202148,-0.621826
25:21.6,-0.233887,0.221924,-0.215088
25:21.6,-0.621338,0.29126,-0.011719
25:21.7,-0.647461,0.364502,-0.310059
25:21.7,-0.440186,0.5271,-0.90332
25:21.7,-0.139648,0.546875,-1.205322
25:21.7,0.166504,0.433838,-0.583252
25:21.7,0.304932,0.441895,3.291992
25:21.7,-1.784424,-7.50293,6.956543
25:21.7,0.671143,3.059082,-4.768066
25:21.7,-0.533691,-2.056641,4.022705
25:21.7,-0.043945,0.030029,0.705811
25:21.7,-0.109863,-0.037109,0.928955
25:21.8,-0.095947,-0.054688,0.898193
25:21.8,-0.128174,-0.112793,0.989014
25:21.8,-0.122803,-0.096191,0.954102
25:21.8,-0.108154,-0.12793,0.985352
25:21.8,-0.10498,-0.125,0.966797
25:21.8,-0.074463,-0.125,0.970703
25:21.8,-0.082031,-0.125,0.98584
25:21.8,-0.114502,-0.125244,0.984375
25:21.8,-0.128662,-0.123047,0.984863
25:21.8,-0.14209,-0.105469,0.979736
25:21.9,-0.140869,-0.091797,0.949463
25:21.9,-0.138184,-0.096191,0.955566
25:21.9,-0.123535,-0.108643,0.967773
25:21.9,-0.122559,-0.092041,0.953613
25:21.9,-0.107422,-0.093994,0.970703
25:21.9,-0.109375,-0.091309,0.966553
25:21.9,-0.108887,-0.076172,0.948486
25:21.9,-0.111816,-0.078125,0.938477
25:21.9,-0.126953,-0.078125,0.952148
25:21.9,-0.122314,-0.078125,0.935303
25:22.0,-0.107422,-0.077637,0.939941
25:22.0,-0.109375,-0.081055,0.954834
25:22.0,-0.109375,-0.092773,0.953125
25:22.0,-0.109375,-0.075684,0.953125
25:22.0,-0.109375,-0.081055,0.953125
25:22.0,-0.109375,-0.092773,0.953125
25:22.0,-0.108887,-0.076172,0.953125
25:22.0,-0.112549,-0.078125,0.953125
25:22.0,-0.124023,-0.078125,0.952637
25:22.0,-0.107422,-0.078125,0.955811
25:22.1,-0.109375,-0.077637,0.970947
25:22.1,-0.109375,-0.081299,0.96582
25:22.1,-0.109375,-0.092529,0.951172
25:22.1,-0.109375,-0.075928,0.953125
25:22.1,-0.109375,-0.078125,0.952637
25:22.1,-0.109375,-0.078125,0.956543
25:22.1,-0.109375,-0.078125,0.967529
25:22.1,-0.109375,-0.078125,0.950439
25:22.1,-0.109375,-0.078125,0.956055
25:22.1,-0.109375,-0.078125,0.971191
25:22.2,-0.109375,-0.078125,0.965332
25:22.2,-0.109375,-0.078125,0.950439
25:22.2,-0.108643,-0.077393,0.955811
25:22.2,-0.112549,-0.080811,0.9729
25:22.2,-0.126465,-0.0979,0.991211
25:22.2,-0.128906,-0.116455,1.026367
25:22.2,-0.137451,-0.153076,1.083252
25:22.2,-0.133057,-0.205811,1.201172
25:22.2,-0.178711,-0.228271,1.341309
25:22.2,-0.165283,-0.196289,1.381348
25:22.3,-0.172852,-0.206299,1.412842
25:22.3,-0.239014,-0.131592,1.410645
25:22.3,-0.190918,-0.262695,1.554199
25:22.3,-0.175537,-0.176514,1.460693
25:22.3,-0.164063,-0.231201,1.349854
25:22.3,-0.061035,-0.109863,0.991211
25:22.3,-0.090576,0.026855,0.761719
25:22.3,-0.120361,0.044678,0.678955
25:22.3,-0.105469,0.100098,0.726318
25:22.3,-0.197266,0.110596,0.9646
25:22.4,-0.250977,0.004395,1.229004
25:22.4,-0.227295,-0.009033,1.022705
25:22.4,-0.14917,0.03418,0.708984
25:22.4,-0.19751,-0.0271,0.611816
25:22.4,-0.237305,-0.108643,0.524414
25:22.4,-0.266357,-0.124268,0.548584
25:22.4,-0.188232,-0.161133,0.59082
25:22.4,-0.022705,-0.125244,0.467529
25:22.4,0.061523,-0.094238,0.279053
25:22.4,-0.145996,-0.094238,0.165039
25:22.5,-0.147217,-0.041992,0.152832
25:22.5,0.002197,-0.067139,0.064697
25:22.5,-0.016602,-0.052979,-0.008301
25:22.5,-0.130859,0.00708,-0.070313
25:22.5,-0.177002,0.057617,-0.156006
25:22.5,-0.088867,0.07666,-0.330811
25:22.5,0.043213,0.121338,-0.605225
25:22.5,0.15918,-0.320801,-0.949463
25:22.5,-0.118896,3.237305,0.074219
25:22.5,-1.011475,3.887451,5.846436
25:22.6,-0.168701,-6.570557,4.296631
25:22.6,0.880127,4.876953,-6.375
25:22.6,-0.992188,-1.208252,2.5625
25:22.6,-0.0271,-0.976807,2.7229
25:22.6,-0.005615,0.330566,0.131104
25:22.6,-0.415771,-0.781494,2.305664
25:22.6,-0.040039,-0.349854,1.758789
25:22.6,0.099365,-0.366455,1.788086
25:22.6,-0.019775,-0.544189,1.98584
25:22.6,-0.13623,-0.365234,1.587402
25:22.7,0.039551,-0.048584,0.771973
25:22.7,0.064697,0.272461,0.177246
25:22.7,-0.101807,0.240967,0.258545
25:22.7,-0.315674,0.23291,0.375
25:22.7,-0.543457,0.156006,0.631836
25:22.7,-0.548584,0.067871,0.708252
25:22.7,-0.375,0.159424,0.529541
25:22.7,-0.197754,0.241455,0.468018
25:22.7,-0.057617,0.258545,0.420898
25:22.7,0.047607,0.270752,0.293213
25:22.8,0.109131,0.295898,0.211914
25:22.8,0.046143,0.306641,0.228271
25:22.8,-0.033447,0.27417,0.223877
25:22.8,-0.041016,0.283447,0.082764
25:22.8,-0.050293,0.347656,-0.302734
25:22.8,0.044922,0.477051,-0.81958
25:22.8,0.153809,0.8396,-1.604492
25:22.8,0.047119,-1.903564,2.849121
25:22.8,0.083252,-3.242676,5.98584
25:22.8,0.098389,1.330566,-0.959961
25:22.9,0.011963,-0.941895,2.084961
25:22.9,0.137939,0.284912,0.376709
25:22.9,-0.148926,-0.256592,1.237061
25:22.9,-0.07251,-0.065918,0.861572
25:22.9,-0.146484,-0.135498,1.016602
25:22.9,-0.156494,-0.085449,0.942383
25:22.9,-0.132568,-0.099121,0.958496
25:22.9,-0.123779,-0.111572,0.970947
25:22.9,-0.11792,-0.110596,0.96875
25:22.9,-0.114014,-0.102295,0.967285
25:23.0,-0.121582,-0.098389,0.975586
25:23.0,-0.106934,-0.104492,0.980713
25:23.0,-0.10791,-0.098389,0.967773
25:23.0,-0.11499,-0.105713,0.962891
25:23.0,-0.127197,-0.092773,0.950684
25:23.0,-0.126221,-0.087646,0.953125
25:23.0,-0.118896,-0.075684,0.954346
25:23.0,-0.106934,-0.078125,0.947021
25:23.0,-0.109375,-0.078125,0.933594
25:23.0,-0.109375,-0.078125,0.943359
25:23.1,-0.109375,-0.078125,0.955322
25:23.1,-0.109375,-0.078125,0.953125
25:23.1,-0.109375,-0.078125,0.953125
25:23.1,-0.109375,-0.078125,0.953125
25:23.1,-0.109375,-0.078125,0.953125
25:23.1,-0.109375,-0.078125,0.953125
25:23.1,-0.109375,-0.078125,0.953125
25:23.1,-0.109375,-0.078125,0.953125
25:23.1,-0.109375,-0.078125,0.953125
25:23.1,-0.109375,-0.078125,0.953125
25:23.2,-0.109375,-0.078125,0.953125
25:23.2,-0.109375,-0.078125,0.953125
25:23.2,-0.109375,-0.078125,0.951416
25:23.2,-0.109375,-0.078125,0.960938
25:23.2,-0.109375,-0.076416,0.964355
25:23.2,-0.11084,-0.084473,0.949219
25:23.2,-0.101074,-0.097412,0.961182
25:23.2,-0.0979,-0.087158,0.964355
25:23.2,-0.111572,-0.074219,0.950684
25:23.2,-0.109375,-0.086182,0.953125
25:23.3,-0.109375,-0.089111,0.951416
25:23.3,-0.109375,-0.074219,0.959717
25:23.3,-0.109375,-0.086426,0.972412
25:23.3,-0.109375,-0.089111,0.961914
25:23.3,-0.109375,-0.074219,0.949219
25:23.3,-0.109375,-0.084717,0.961426
25:23.3,-0.107666,-0.095703,0.963867
25:23.3,-0.117676,-0.09375,0.94751
25:23.3,-0.120117,-0.092041,0.965088
25:23.3,-0.105469,-0.09375,0.983643
25:23.4,-0.11792,-0.137451,1.047119
25:23.4,-0.120117,-0.187256,1.134766
25:23.4,-0.107178,-0.189453,1.137939
25:23.4,-0.107422,-0.197754,1.272461
25:23.4,-0.111084,-0.13623,1.3125
25:23.4,-0.164063,-0.096924,1.307861
25:23.4,-0.105225,-0.274658,1.562256
25:23.4,-0.056885,-0.298828,1.63916
25:23.4,-0.089111,-0.273438,1.630371
25:23.4,0.000732,-0.220215,1.300781
25:23.5,0.0271,0.019531,0.874512
25:23.5,-0.015137,0.016357,0.9104
25:23.5,-0.002686,-0.010742,0.800537
25:23.5,0.071777,0.081299,0.626221
25:23.5,0.045898,0.135498,0.696289
25:23.5,-0.041504,0.125,0.682373
25:23.5,-0.139404,0.172119,0.557861
25:23.5,-0.240723,0.209229,0.570313
25:23.5,-0.310059,0.206787,0.615479
25:23.5,-0.307129,0.228271,0.580322
25:23.6,-0.300293,0.282227,0.506836
25:23.6,-0.32959,0.327881,0.406738
25:23.6,-0.305176,0.328125,0.303467
25:23.6,-0.242188,0.339355,0.236328
25:23.6,-0.187744,0.335938,0.282471
25:23.6,-0.128906,0.289063,0.363037
25:23.6,-0.105225,0.234375,0.345703
25:23.6,-0.002197,0.263184,0.226563
25:23.6,0.074219,0.332031,-0.020996
25:23.6,0.040771,0.433594,-0.482422
25:23.7,0.041016,0.466553,-0.730225
25:23.7,-0.263916,0.044189,-1.49585
25:23.7,0.620361,0.959473,4.285645
25:23.7,-0.096436,-0.556396,7.343018
25:23.7,-0.763184,-0.243408,-0.229492
25:23.7,0.031982,0.088867,0.420654
25:23.7,-0.057373,-1.172363,2.394531
25:23.7,-0.111572,-0.339111,0.985596
25:23.7,-0.394287,-0.479248,2.104736
25:23.7,-0.400635,-0.379639,2.264893
25:23.8,-0.121338,-0.364746,1.917969
25:23.8,0.212402,-0.108398,0.996094
25:23.8,0.262939,0.108643,0.393799
25:23.8,0.060059,0.186035,0.414063
25:23.8,-0.185791,0.101074,0.556641
25:23.8,-0.23291,0.112061,0.462402
25:23.8,-0.18457,0.216553,0.4104
25:23.8,-0.121338,0.228516,0.440918
25:23.8,-0.071777,0.240234,0.407227
25:23.8,-0.046143,0.260254,0.276123
25:23.9,-0.055664,0.322754,0.136719
25:23.9,-0.102783,0.344238,0.182373
25:23.9,-0.149414,0.268311,0.31543
25:23.9,-0.159668,0.204346,0.344971
25:23.9,-0.119385,0.255615,0.088379
25:23.9,-0.008545,0.368164,-0.364746
25:23.9,0.062256,0.474365,-0.655518
25:23.9,-0.10083,0.86792,-1.696289
25:23.9,-0.166504,-2.469238,5.212158
25:23.9,-0.391602,-2.317139,5.337646
25:24.0,-0.081055,0.491943,-0.895996
25:24.0,0.099121,-0.336426,1.011963
25:24.0,-0.118164,-0.362305,1.514404
25:24.0,-0.136719,-0.014404,0.805176
25:24.0,-0.110596,-0.098389,1.01709
25:24.0,-0.115479,-0.044678,0.886475
25:24.0,-0.149902,-0.083008,0.96167
25:24.0,-0.122559,-0.07373,0.940918
25:24.0,-0.105957,-0.098145,0.963623
25:24.0,-0.106934,-0.103516,0.970215
25:24.1,-0.122803,-0.092041,0.96875
25:24.1,-0.105957,-0.09375,0.96875
25:24.1,-0.099609,-0.09375,0.96875
25:24.1,-0.11084,-0.09375,0.970947
25:24.1,-0.109375,-0.095947,0.959473
25:24.1,-0.109375,-0.084473,0.951416
25:24.1,-0.109375,-0.076416,0.955322
25:24.1,-0.106934,-0.078125,0.941406
25:24.1,-0.12085,-0.078125,0.945068
25:24.1,-0.116943,-0.078125,0.95459
25:24.2,-0.107666,-0.078125,0.953125
25:24.2,-0.109375,-0.078125,0.953125
25:24.2,-0.109375,-0.078125,0.953125
25:24.2,-0.109375,-0.078125,0.953125
25:24.2,-0.109375,-0.078125,0.950684
25:24.2,-0.109375,-0.078125,0.964844
25:24.2,-0.109375,-0.078125,0.958252
25:24.2,-0.106934,-0.078125,0.961182
25:24.2,-0.118896,-0.078125,0.969971
25:24.2,-0.128662,-0.078125,0.970947
25:24.3,-0.115234,-0.078125,0.958984
25:24.3,-0.10791,-0.078125,0.95166
25:24.3,-0.109375,-0.078125,0.953125
25:24.3,-0.109375,-0.078125,0.953125
25:24.3,-0.109375,-0.078125,0.953125
25:24.3,-0.109375,-0.078125,0.953125
25:24.3,-0.109375,-0.078125,0.950684
25:24.3,-0.109375,-0.078125,0.962891
25:24.3,-0.109375,-0.078125,0.969971
25:24.3,-0.109375,-0.078125,0.96875
25:24.4,-0.109375,-0.078125,0.96875
25:24.4,-0.111572,-0.078125,0.970947
25:24.4,-0.096924,-0.078125,0.958496
25:24.4,-0.102539,-0.078125,0.95166
25:24.4,-0.110596,-0.078125,0.953125
25:24.4,-0.111572,-0.078125,0.953125
25:24.4,-0.09668,-0.080322,0.955322
25:24.4,-0.10498,-0.06543,0.942871
25:24.4,-0.100098,-0.07373,0.938477
25:24.4,-0.087891,-0.068848,0.924805
25:24.5,-0.118896,-0.058838,0.92627
25:24.5,-0.101807,-0.074951,0.963867
25:24.5,-0.116699,-0.068848,0.947998
25:24.5,-0.106445,-0.068115,0.957031
25:24.5,-0.091309,-0.021729,0.890381
25:24.5,-0.091309,-0.053955,0.921631
25:24.5,-0.104248,-0.08252,0.95874
25:24.5,-0.110352,-0.078125,0.953125
25:24.5,-0.11377,-0.078125,0.955322
25:24.5,-0.078857,-0.080322,0.937744
25:24.6,-0.115967,-0.060547,0.952881
25:24.6,-0.136963,-0.107178,0.978271
25:24.6,-0.212646,-0.057617,1.008301
25:24.6,-0.39209,0.061279,1.287109
25:24.6,-0.665283,0.044189,1.766602
25:24.6,-0.846191,-0.765869,2.745605
25:24.6,-0.472168,-0.897461,2.576172
25:24.6,-0.015137,-0.369141,0.99585
25:24.6,0.223389,-0.04126,-0.085205
25:24.6,0.121338,-0.164307,0.155762
25:24.7,-0.043213,-0.273193,0.555176
25:24.7,-0.011963,-0.18335,0.498047
25:24.7,0.155273,-0.098877,0.189209
25:24.7,0.322021,-0.036865,-0.014893
25:24.7,0.342773,0.009766,-0.04126
25:24.7,0.262207,0.080322,0.04248
25:24.7,0.140137,0.144775,0.137207
25:24.7,-0.062256,0.057861,0.459473
25:24.7,0.385986,1.640869,-2.88916
25:24.7,0.329834,-0.565918,3.383057
25:24.8,-0.855713,-2.990479,7.384521
25:24.8,0.087646,0.40918,-0.405273
25:24.8,0.681396,1.518066,-1.848145
25:24.8,-0.533447,-0.94751,2.88916
25:24.8,-0.336914,-0.668457,2.306152
25:24.8,-0.031494,-0.05249,1.059082
25:24.8,-0.134766,-0.27124,2.028809
25:24.8,-0.361572,-0.821045,3.056885
25:24.8,-0.129395,-0.727783,1.985596
25:24.8,0.329102,-0.051025,0.403809
25:24.9,0.451172,0.383301,-0.235352
25:24.9,0.241699,0.37207,0.145508
25:24.9,-0.116943,0.200439,0.64502
25:24.9,-0.368408,0.093262,0.687012
25:24.9,-0.45459,0.130859,0.56958
25:24.9,-0.445068,0.185303,0.537109
25:24.9,-0.365234,0.245605,0.521484
25:24.9,-0.258789,0.297119,0.369141
25:24.9,-0.130127,0.349854,0.124023
25:24.9,-0.022461,0.372314,0.130615
25:25.0,-0.04541,0.304199,0.241943
25:25.0,-0.084961,0.251709,0.312744
25:25.0,-0.035156,0.247559,0.250977
25:25.0,0.006592,0.322998,-0.115723
25:25.0,0.032227,0.449219,-0.667969
25:25.0,0.117432,0.503662,-0.938965
25:25.0,-0.051025,0.751221,-1.747559
25:25.0,0.256348,-3.500244,7.151123
25:25.0,-0.154053,-0.736084,2.095459
25:25.0,0.001221,0.169922,0.149902
25:25.1,0.143799,0.002197,0.964111
25:25.1,-0.140381,-0.301758,1.297363
25:25.1,-0.10791,-0.063721,0.886963
25:25.1,-0.094482,-0.108887,0.998779
25:25.1,-0.13501,-0.079834,0.934082
25:25.1,-0.145752,-0.082275,0.964844
25:25.1,-0.115723,-0.107178,0.974609
25:25.1,-0.108154,-0.109863,0.968018
25:25.1,-0.109375,-0.109375,0.966553
25:25.1,-0.109375,-0.109375,0.983154
25:25.2,-0.109375,-0.109375,0.970215
25:25.2,-0.109375,-0.111328,0.984619
25:25.2,-0.107178,-0.09668,0.959717
25:25.2,-0.121826,-0.093262,0.950195
25:25.2,-0.125244,-0.09375,0.967529
25:25.2,-0.126709,-0.095459,0.956543
25:25.2,-0.112305,-0.081055,0.952637
25:25.2,-0.108887,-0.077637,0.953125
25:25.2,-0.109375,-0.078125,0.954834
25:25.2,-0.109375,-0.078125,0.938232
25:25.3,-0.109375,-0.078125,0.949707
25:25.3,-0.109375,-0.078125,0.953369
25:25.3,-0.109375,-0.078125,0.953125
25:25.3,-0.109375,-0.078125,0.953125
25:25.3,-0.109375,-0.078125,0.953125
25:25.3,-0.109375,-0.078125,0.951172
25:25.3,-0.107422,-0.078125,0.967773
25:25.3,-0.124023,-0.078125,0.954102
25:25.3,-0.112305,-0.078125,0.967529
25:25.3,-0.108887,-0.078125,0.955811
25:25.4,-0.107422,-0.078125,0.952637
25:25.4,-0.124268,-0.078125,0.953125
25:25.4,-0.110352,-0.078125,0.953125
25:25.4,-0.123779,-0.078125,0.951172
25:25.4,-0.112061,-0.078125,0.968018
25:25.4,-0.108887,-0.078125,0.953857
25:25.4,-0.109375,-0.076416,0.966064
25:25.4,-0.109375,-0.093018,0.970703
25:25.4,-0.109375,-0.080566,0.955322
25:25.4,-0.109375,-0.077637,0.952637
25:25.5,-0.109375,-0.078125,0.953125
25:25.5,-0.109375,-0.078125,0.953125
25:25.5,-0.109375,-0.078125,0.953125
25:25.5,-0.109375,-0.078125,0.953125
25:25.5,-0.109375,-0.078125,0.953125
25:25.5,-0.109375,-0.078125,0.953125
25:25.5,-0.109375,-0.078125,0.951416
25:25.5,-0.109375,-0.076416,0.965088
25:25.5,-0.107666,-0.091553,0.980957
25:25.5,-0.121582,-0.089355,0.990723
25:25.6,-0.141846,-0.133301,1.065674
25:25.6,-0.113281,-0.151855,1.099365
25:25.6,-0.108887,-0.188232,1.174316
25:25.6,-0.109375,-0.147705,1.221191
25:25.6,-0.10791,-0.120605,1.30249
25:25.6,-0.120361,-0.17334,1.461182
25:25.6,-0.159668,-0.244141,1.707764
25:25.6,-0.09082,-0.425781,1.803467
25:25.6,-0.039307,-0.216309,1.373779
25:25.6,0.012451,-0.163574,1.177002
25:25.7,0.001953,-0.086914,1.057617
25:25.7,0,-0.063232,1.046875
25:25.7,-0.007324,-0.077148,0.885498
25:25.7,0.082275,0.10083,0.57373
25:25.7,0.133545,0.201904,0.53833
25:25.7,0.005615,0.143311,0.623535
25:25.7,-0.111328,0.18042,0.549805
25:25.7,-0.179199,0.216309,0.602051
25:25.7,-0.229492,0.216553,0.630615
25:25.7,-0.247803,0.243896,0.54248
25:25.8,-0.262207,0.289795,0.49292
25:25.8,-0.292236,0.339111,0.419434
25:25.8,-0.32666,0.357178,0.307861
25:25.8,-0.31665,0.374756,0.250732
25:25.8,-0.271973,0.362549,0.275635
25:25.8,-0.22168,0.332031,0.327637
25:25.8,-0.225098,0.297852,0.298828
25:25.8,-0.125,0.304688,0.085693
25:25.8,0.019531,0.40918,-0.298096
25:25.8,0.078125,0.513428,-0.674561
25:25.9,0.042725,0.46582,-0.824951
25:25.9,-0.107422,0.327393,-0.788818
25:25.9,-0.265381,0.31958,-0.859375
25:25.9,-0.481445,-8,7.999756
25:25.9,0.895508,3.078613,-2.642822
25:25.9,-0.013916,-1.533691,2.17749
25:25.9,0.407959,0.330811,0.392822
25:25.9,-0.161133,-0.549072,1.434326
25:25.9,-0.114746,-0.071289,0.91626
25:25.9,-0.092285,-0.089844,0.964111
25:26.0,-0.13916,-0.109375,0.969482
25:26.0,-0.125488,-0.09375,0.953125
25:26.0,-0.124756,-0.108643,0.968018
25:26.0,-0.125488,-0.109375,0.96875
25:26.0,-0.110352,-0.109375,0.96875
25:26.0,-0.094238,-0.109375,0.96875
25:26.0,-0.093506,-0.109375,0.96875
25:26.0,-0.092773,-0.109375,0.96875
25:26.0,-0.124756,-0.109375,0.96875
25:26.0,-0.093994,-0.109619,0.968994
25:26.1,-0.108887,-0.093994,0.953369
25:26.1,-0.109375,-0.093506,0.952881
25:26.1,-0.109375,-0.09375,0.953125
25:26.1,-0.109375,-0.09375,0.953125
25:26.1,-0.109375,-0.09375,0.953125
25:26.1,-0.109375,-0.09375,0.953125
25:26.1,-0.109375,-0.09375,0.953125
25:26.1,-0.109375,-0.09375,0.953125
25:26.1,-0.109375,-0.09375,0.953125
25:26.1,-0.109375,-0.09375,0.953125
25:26.2,-0.109375,-0.09375,0.953125
25:26.2,-0.109375,-0.09375,0.953125
25:26.2,-0.109375,-0.09375,0.953125
25:26.2,-0.109375,-0.09375,0.953125
25:26.2,-0.109375,-0.093506,0.952881
25:26.2,-0.109375,-0.078125,0.953125
25:26.2,-0.109375,-0.09375,0.968506
25:26.2,-0.109375,-0.093506,0.952881
25:26.2,-0.109375,-0.077881,0.953125
25:26.2,-0.109375,-0.078125,0.952881
25:26.3,-0.109375,-0.093506,0.953369
25:26.3,-0.109375,-0.078125,0.968506
25:26.3,-0.109375,-0.093994,0.952637
25:26.3,-0.109375,-0.093262,0.953125
25:26.3,-0.109375,-0.077637,0.953125
25:26.3,-0.109375,-0.078369,0.953125
25:26.3,-0.109375,-0.093506,0.953125
25:26.3,-0.109375,-0.077637,0.953125
25:26.3,-0.109375,-0.078125,0.952881
25:26.3,-0.109375,-0.078125,0.953613
25:26.4,-0.109375,-0.078125,0.968506
25:26.4,-0.109375,-0.078125,0.952393
25:26.4,-0.109375,-0.078125,0.953125
25:26.4,-0.109375,-0.077881,0.953125
25:26.4,-0.109375,-0.078613,0.953125
25:26.4,-0.109375,-0.093506,0.953125
25:26.4,-0.109375,-0.077393,0.953125
25:26.4,-0.109375,-0.078125,0.953125
25:26.4,-0.109375,-0.078125,0.953125
25:26.4,-0.109375,-0.078125,0.953125
25:26.5,-0.109375,-0.078125,0.953125
25:26.5,-0.109375,-0.078125,0.953125
25:26.5,-0.109375,-0.077881,0.952881
25:26.5,-0.109375,-0.079102,0.954102
25:26.5,-0.109375,-0.093506,0.969482
25:26.5,-0.109375,-0.077148,0.967529
25:26.5,-0.109375,-0.079102,0.951904
25:26.5,-0.109375,-0.093506,0.954102
25:26.5,-0.109375,-0.076904,0.968506
25:26.5,-0.109375,-0.079102,0.953125
25:26.6,-0.109375,-0.094727,0.969727
25:26.6,-0.109375,-0.09375,0.967285
25:26.6,-0.109375,-0.092285,0.951904
25:26.6,-0.109375,-0.078369,0.952881
25:26.6,-0.109375,-0.093506,0.954346
25:26.6,-0.109375,-0.076904,0.968506
25:26.6,-0.109375,-0.078125,0.951904
25:26.6,-0.109375,-0.078125,0.953125
25:26.6,-0.109375,-0.077881,0.952881
25:26.6,-0.109131,-0.079346,0.954102
25:26.7,-0.110596,-0.097656,0.973877
25:26.7,-0.127686,-0.128418,1.023193
25:26.7,-0.14209,-0.148438,1.074219
25:26.7,-0.135254,-0.205078,1.144287
25:26.7,-0.094482,-0.169678,1.137451
25:26.7,-0.146729,-0.166992,1.249756
25:26.7,-0.152344,-0.117432,1.156738
25:26.7,-0.106201,-0.090332,1.237793
25:26.7,-0.133545,-0.098389,1.232178
25:26.7,-0.188965,-0.150146,1.382324
25:26.8,-0.15918,-0.19043,1.432129
25:26.8,-0.204346,-0.166016,1.279785
25:26.8,-0.161621,-0.109863,1.097168
25:26.8,-0.099854,-0.01709,1.013916
25:26.8,-0.072754,0.023682,0.934326
25:26.8,-0.0625,0.051514,0.845947
25:26.8,-0.083252,0.065674,0.829346
25:26.8,-0.114502,0.081299,0.858887
25:26.8,-0.124512,0.09668,0.81958
25:26.8,-0.105469,0.114502,0.768311
25:26.9,-0.092285,0.147705,0.710205
25:26.9,-0.091309,0.176514,0.703125
25:26.9,-0.078369,0.192871,0.688721
25:26.9,-0.097412,0.22583,0.574951
25:26.9,-0.11084,0.256592,0.514648
25:26.9,-0.108887,0.292969,0.398193
25:26.9,-0.111084,0.355225,0.207031
25:26.9,-0.130615,0.377441,0.205078
25:26.9,-0.164551,0.345947,0.268066
25:26.9,-0.190918,0.268311,0.332275
25:27.0,-0.152344,0.277832,0.223145
25:27.0,-0.018066,0.373779,-0.070313
25:27.0,0.057617,0.403564,-0.376953
25:27.0,0.046875,0.433105,-0.639404
25:27.0,-0.003418,0.27124,-0.607666
25:27.0,0.061279,0.424316,-0.209961
25:27.0,-0.106445,-0.64209,2.639404
25:27.0,-2.62915,-7.102783,6.652344
25:27.0,0.893555,3.11499,-3.556885
25:27.0,-0.304199,-2.463867,4.251465
25:27.1,0.203613,0.390625,0.279297
25:27.1,-0.355957,-0.469238,1.82959
25:27.1,-0.266113,-0.365234,2.345215
25:27.1,-0.161865,-0.602051,2.462891
25:27.1,0.189453,-0.155273,1.181885
25:27.1,0.08374,0.045898,0.518799
25:27.1,-0.127686,0.031006,0.510254
25:27.1,-0.158203,0.097412,0.543213
25:27.1,-0.2146,0.055176,0.696045
25:27.1,-0.180664,0.081543,0.641602
25:27.2,-0.051025,0.198242,0.493896
25:27.2,0,0.240479,0.530762
25:27.2,0.01123,0.204834,0.57373
25:27.2,-0.042969,0.178467,0.435303
25:27.2,-0.066895,0.278564,0.228027
25:27.2,-0.093506,0.361572,0.146484
25:27.2,-0.180908,0.345703,0.232178
25:27.2,-0.254883,0.264404,0.299072
25:27.2,-0.286133,0.27832,0.11084
25:27.2,-0.25293,0.399902,-0.331299
25:27.3,-0.177246,0.538818,-0.801758
25:27.3,-0.169922,0.404053,-0.970947
25:27.3,0.285156,1.110596,-0.265869
25:27.3,0.654785,0.459717,3.903564
25:27.3,-1.766602,-5.983887,5.935059
25:27.3,0.668457,2.84082,-3.541992
25:27.3,-0.306885,-1.858398,3.670898
25:27.3,0.124023,0.456055,0.099121
25:27.3,-0.250244,-0.296387,1.351318
25:27.3,-0.063965,0.054199,0.764404
25:27.4,-0.113525,-0.109619,1.010742
25:27.4,-0.109863,-0.035889,0.87915
25:27.4,-0.106201,-0.0979,0.972656
25:27.4,-0.087646,-0.07959,0.941162
25:27.4,-0.076416,-0.095703,0.968506
25:27.4,-0.072754,-0.09375,0.95459
25:27.4,-0.067139,-0.09375,0.971436
25:27.4,-0.101807,-0.094238,0.964111
25:27.4,-0.111572,-0.0896,0.954834
25:27.4,-0.109375,-0.074951,0.970947
25:27.5,-0.110107,-0.082031,0.96875
25:27.5,-0.105225,-0.095947,0.96875
25:27.5,-0.091309,-0.094482,0.96875
25:27.5,-0.092773,-0.0896,0.96875
25:27.5,-0.097656,-0.075684,0.969482
25:27.5,-0.111572,-0.078125,0.9646
25:27.5,-0.109375,-0.078857,0.950684
25:27.5,-0.108398,-0.072998,0.953125
25:27.5,-0.114258,-0.064453,0.953125
25:27.5,-0.122803,-0.080322,0.952148
25:27.6,-0.106934,-0.078125,0.957275
25:27.6,-0.109375,-0.078125,0.97168
25:27.6,-0.110107,-0.078125,0.964355
25:27.6,-0.104004,-0.078125,0.950684
25:27.6,-0.095703,-0.078125,0.952148
25:27.6,-0.111572,-0.078125,0.958252
25:27.6,-0.109375,-0.078125,0.966309
25:27.6,-0.109375,-0.078125,0.950684
25:27.6,-0.109375,-0.078125,0.953125
25:27.6,-0.109375,-0.078125,0.953125
25:27.7,-0.109375,-0.078125,0.952148
25:27.7,-0.109375,-0.078125,0.958496
25:27.7,-0.109375,-0.078125,0.966309
25:27.7,-0.109375,-0.078125,0.950684
25:27.7,-0.109375,-0.078125,0.953125
25:27.7,-0.109375,-0.078125,0.953125
25:27.7,-0.109375,-0.078125,0.953125
25:27.7,-0.109375,-0.078125,0.953125
25:27.7,-0.109375,-0.078125,0.953125
25:27.7,-0.109375,-0.078125,0.953125
25:27.8,-0.109375,-0.078125,0.953125
25:27.8,-0.109375,-0.078125,0.951904
25:27.8,-0.108154,-0.078125,0.958008
25:27.8,-0.113037,-0.075928,0.967773
25:27.8,-0.132324,-0.084717,0.978271
25:27.8,-0.14502,-0.12793,1.043213
25:27.8,-0.126953,-0.163574,1.113281
25:27.8,-0.118896,-0.197998,1.220459
25:27.8,-0.168213,-0.223633,1.338135
25:27.8,-0.167236,-0.197754,1.423096
25:27.9,-0.218018,-0.269043,1.745117
25:27.9,-0.218262,-0.344971,1.888428
25:27.9,0.000244,-0.325195,1.5896
25:27.9,0.045654,-0.108643,1.134766
25:27.9,-0.013184,-0.075439,1.111816
25:27.9,-0.077637,-0.076416,0.993896
25:27.9,-0.048584,0.01709,0.679932
25:27.9,0.000732,0.138184,0.460938
25:27.9,0.028076,0.251465,0.381592
25:27.9,0.028809,0.247803,0.421387
25:28.0,-0.0271,0.237549,0.465332
25:28.0,-0.10791,0.249756,0.483643
25:28.0,-0.168945,0.253418,0.432129
25:28.0,-0.179199,0.31665,0.198975
25:28.0,-0.16333,0.405029,0.061279
25:28.0,-0.231201,0.395996,0.203613
25:28.0,-0.281738,0.300293,0.343262
25:28.0,-0.28833,0.234863,0.407959
25:28.0,-0.233154,0.249023,0.282959
25:28.0,-0.061035,0.293945,0.000244
25:28.1,0.113281,0.373535,-0.333252
25:28.1,0.150391,0.377686,-0.508057
25:28.1,0.011719,-0.076416,-0.839111
25:28.1,0.108643,1.435303,2.042725
25:28.1,-0.490723,0.953857,6.658447
25:28.1,-0.94458,-1.487549,1.579834
25:28.1,0.049316,0.496582,-0.870361
25:28.1,-0.103516,-1.213379,3.002197
25:28.1,0.077393,0.162598,0.746094
25:28.1,-0.448486,-0.378418,1.959229
25:28.2,-0.395996,-0.49292,2.359131
25:28.2,-0.106934,-0.456055,1.945557
25:28.2,0.174072,-0.124512,0.90918
25:28.2,0.077637,0.111328,0.522461
25:28.2,-0.138428,0.106689,0.591553
25:28.2,-0.252686,0.113037,0.592041
25:28.2,-0.236084,0.089355,0.606689
25:28.2,-0.155518,0.143799,0.463379
25:28.2,-0.031494,0.273438,0.324463
25:28.2,0.020752,0.287842,0.361572
25:28.3,0.051514,0.273438,0.314697
25:28.3,0.063232,0.318115,0.139404
25:28.3,0.001953,0.357178,0.137695
25:28.3,-0.132568,0.284424,0.325195
25:28.3,-0.234131,0.216553,0.450439
25:28.3,-0.210693,0.206543,0.353027
25:28.3,-0.130371,0.288086,-0.008789
25:28.3,-0.038574,0.402832,-0.410156
25:28.3,-0.034912,0.392578,-0.521973
25:28.3,-0.195313,0.758789,-1.157959
25:28.4,-0.139648,-2.552734,4.114258
25:28.4,-0.102539,-3.571533,6.010254
25:28.4,-0.091309,1.144775,-1.269287
25:28.4,0.028076,-0.003418,0.957764
25:28.4,-0.062988,-0.462158,1.754883
25:28.4,-0.070801,0.166504,0.441406
25:28.4,-0.178467,-0.177246,1.242432
25:28.4,-0.071045,0.056885,0.735107
25:28.4,-0.164063,-0.093262,0.994141
25:28.4,-0.140137,-0.062988,0.922852
25:28.5,-0.135254,-0.091309,0.968506
25:28.5,-0.117432,-0.084717,0.958008
25:28.5,-0.098389,-0.088623,0.972412
25:28.5,-0.100342,-0.077637,0.961426
25:28.5,-0.102539,-0.069092,0.950928
25:28.5,-0.098633,-0.067383,0.953125
25:28.5,-0.111328,-0.080078,0.953125
25:28.5,-0.109375,-0.078125,0.953125
25:28.5,-0.109375,-0.078125,0.953125
25:28.5,-0.109375,-0.078125,0.953125
25:28.6,-0.109375,-0.078125,0.953125
25:28.6,-0.109375,-0.078125,0.953125
25:28.6,-0.109375,-0.078125,0.953125
25:28.6,-0.109375,-0.078125,0.953125
25:28.6,-0.109375,-0.078125,0.951172
25:28.6,-0.109375,-0.078125,0.960449
25:28.6,-0.109375,-0.078125,0.972412
25:28.6,-0.109375,-0.078125,0.961182
25:28.6,-0.109375,-0.078125,0.949219
25:28.6,-0.109375,-0.078125,0.962402
25:28.7,-0.109375,-0.078125,0.962891
25:28.7,-0.109375,-0.078125,0.950928
25:28.7,-0.109375,-0.078125,0.953125
25:28.7,-0.109375,-0.078125,0.953125
25:28.7,-0.109375,-0.078125,0.951172
25:28.7,-0.109375,-0.078125,0.960693
25:28.7,-0.109375,-0.078125,0.970703
25:28.7,-0.109375,-0.078125,0.96875
25:28.7,-0.109375,-0.078125,0.970703
25:28.7,-0.111328,-0.078125,0.95874
25:28.8,-0.099365,-0.078125,0.958984
25:28.8,-0.099609,-0.078125,0.972412
25:28.8,-0.111084,-0.078125,0.960693
25:28.8,-0.109375,-0.078125,0.951172
25:28.8,-0.109375,-0.078125,0.950928
25:28.8,-0.109375,-0.078125,0.963135
25:28.8,-0.109375,-0.078125,0.962402
25:28.8,-0.109375,-0.080078,0.951172
25:28.8,-0.109375,-0.067871,0.953125
25:28.8,-0.109375,-0.070801,0.953125
25:28.9,-0.109375,-0.06958,0.950928
25:28.9,-0.109375,-0.070801,0.961182
25:28.9,-0.109375,-0.06958,0.970459
25:28.9,-0.109375,-0.068848,0.970703
25:28.9,-0.109375,-0.079834,0.960205
25:28.9,-0.109375,-0.078125,0.951172
25:28.9,-0.109375,-0.078125,0.950928
25:28.9,-0.109375,-0.078125,0.963623
25:28.9,-0.109375,-0.078125,0.961914
25:28.9,-0.109375,-0.078125,0.951172
25:29.0,-0.109375,-0.075928,0.950928
25:29.0,-0.109375,-0.088623,0.96167
25:29.0,-0.102783,-0.080322,0.95752
25:29.0,-0.137207,-0.0979,1.013916
25:29.0,-0.148438,-0.138916,1.077393
25:29.0,-0.149658,-0.194336,1.188232
25:29.0,-0.194824,-0.210449,1.276855
25:29.0,-0.232666,-0.279785,1.572998
25:29.0,-0.377441,-0.329102,2.001465
25:29.0,-0.286865,-0.413086,1.962158
25:29.1,0.03125,-0.259766,1.2854
25:29.1,0.169189,-0.026611,0.871826
25:29.1,0.079346,0.000977,0.913574
25:29.1,-0.019775,-0.000244,0.863281
25:29.1,-0.053955,0.046631,0.677979
25:29.1,-0.070068,0.157959,0.453613
25:29.1,-0.040039,0.236816,0.353027
25:29.1,-0.034912,0.274902,0.347168
25:29.1,-0.099854,0.275146,0.410889
25:29.1,-0.196045,0.255127,0.393311
25:29.2,-0.215088,0.299805,0.176025
25:29.2,-0.215088,0.3479,0.10083
25:29.2,-0.206299,0.335693,0.216309
25:29.2,-0.17041,0.276855,0.324463
25:29.2,-0.150146,0.214111,0.330322
25:29.2,-0.061279,0.250732,0.110596
25:29.2,0.018066,0.366699,-0.268555
25:29.2,0.015625,0.3396,-0.379395
25:29.2,-0.142578,0.775391,-1.40918
25:29.2,0.198975,-3.056885,5.762207
25:29.3,-0.111328,-2.166016,4.63501
25:29.3,-0.148438,0.683838,-0.810303
25:29.3,-0.067627,-0.432373,1.531738
25:29.3,-0.033447,-0.431641,1.602783
25:29.3,-0.231689,-0.211426,1.224365
25:29.3,-0.449951,-0.258789,1.970703
25:29.3,-0.321289,-0.410156,2.341553
25:29.3,-0.060303,-0.368896,1.719971
25:29.3,0.115723,-0.030273,0.753906
25:29.3,0.067139,0.026367,0.614014
25:29.4,-0.031494,0.072998,0.572998
25:29.4,-0.043213,0.166748,0.432861
25:29.4,-0.081299,0.222168,0.436768
25:29.4,-0.143555,0.236084,0.455078
25:29.4,-0.108398,0.241699,0.4104
25:29.4,-0.059814,0.25415,0.330811
25:29.4,-0.007568,0.289551,0.179443
25:29.4,-0.011963,0.357666,0.12085
25:29.4,-0.09668,0.327148,0.275635
25:29.4,-0.208252,0.212402,0.470947
25:29.5,-0.258057,0.178223,0.470459
25:29.5,-0.179932,0.243164,0.208496
25:29.5,-0.047607,0.342529,-0.142822
25:29.5,0.012451,0.365967,-0.32251
25:29.5,-0.046143,0.079346,-0.574219
25:29.5,0.161865,1.866211,0.286865
25:29.5,-1.179199,-4.22998,7.631592
25:29.5,-0.051514,-0.790771,0.624512
25:29.5,0.080078,0.036621,0.584473
25:29.5,0.050049,-0.420166,1.5271
25:29.6,-0.033203,0.016357,0.824951
25:29.6,-0.145996,-0.106201,0.996094
25:29.6,-0.099854,-0.040771,0.895752
25:29.6,-0.128418,-0.073975,0.947266
25:29.6,-0.127197,-0.09375,0.963623
25:29.6,-0.114502,-0.102051,0.965576
25:29.6,-0.108154,-0.094727,0.961182
25:29.6,-0.109375,-0.083008,0.972168
25:29.6,-0.111572,-0.074707,0.958008
25:29.6,-0.096436,-0.088623,0.949707
25:29.7,-0.103271,-0.096924,0.966064
25:29.7,-0.110352,-0.083008,0.956787
25:29.7,-0.109375,-0.076904,0.964844
25:29.7,-0.109375,-0.078125,0.958984
25:29.7,-0.109375,-0.078125,0.951904
25:29.7,-0.109375,-0.078125,0.953125
25:29.7,-0.109375,-0.078125,0.953125
25:29.7,-0.109375,-0.078125,0.953125
25:29.7,-0.109375,-0.078125,0.953125
25:29.7,-0.109375,-0.078125,0.953125
25:29.8,-0.109375,-0.078125,0.953125
25:29.8,-0.109375,-0.078125,0.953125
25:29.8,-0.109375,-0.078125,0.950684
25:29.8,-0.109375,-0.078125,0.966309
25:29.8,-0.109375,-0.078125,0.958496
25:29.8,-0.109375,-0.078125,0.952148
25:29.8,-0.109375,-0.078125,0.953125
25:29.8,-0.109375,-0.078125,0.953125
25:29.8,-0.109375,-0.078125,0.953125
25:29.8,-0.109375,-0.078125,0.950684
25:29.9,-0.109375,-0.078125,0.964355
25:29.9,-0.109375,-0.078125,0.97168
25:29.9,-0.109375,-0.078125,0.957275
25:29.9,-0.109375,-0.078125,0.952148
25:29.9,-0.109375,-0.078125,0.950684
25:29.9,-0.109375,-0.078125,0.966553
25:29.9,-0.109375,-0.078125,0.958008
25:29.9,-0.109375,-0.078125,0.949951
25:29.9,-0.109375,-0.078125,0.966797
25:29.9,-0.109375,-0.078125,0.958008
25:30.0,-0.109375,-0.078125,0.952148
25:30.0,-0.109375,-0.078125,0.950684
25:30.0,-0.109375,-0.078125,0.9646
25:30.0,-0.106934,-0.078125,0.969482
25:30.0,-0.12085,-0.075684,0.964111
25:30.0,-0.125732,-0.085205,0.987549
25:30.0,-0.125,-0.120117,1.0271
25:30.0,-0.122803,-0.112305,1.01416
25:30.0,-0.134521,-0.115967,1.043701
25:30.0,-0.157471,-0.155762,1.104248
25:30.1,-0.133057,-0.124268,1.081055
25:30.1,-0.119141,-0.091064,1.094971
25:30.1,-0.140137,-0.105957,1.181152
25:30.1,-0.207275,-0.172852,1.460449
25:30.1,-0.21582,-0.284424,1.700439
25:30.1,-0.177002,-0.273193,1.630127
25:30.1,-0.109131,-0.223389,1.350342
25:30.1,0.011475,-0.056396,1.018799
25:30.1,0.027588,0.019531,0.97583
25:30.1,-0.00708,-0.013672,0.954834
25:30.2,-0.024658,0.017334,0.907471
25:30.2,-0.056152,0.032471,0.856689
25:30.2,-0.061523,0.116455,0.728027
25:30.2,-0.074707,0.17041,0.696289
25:30.2,-0.076416,0.158447,0.715332
25:30.2,-0.092285,0.163818,0.731445
25:30.2,-0.079834,0.190674,0.652832
25:30.2,-0.085693,0.241211,0.570068
25:30.2,-0.114746,0.249512,0.582764
25:30.2,-0.152832,0.260254,0.534668
25:30.3,-0.146729,0.268311,0.393311
25:30.3,-0.119385,0.345947,0.300781
25:30.3,-0.168457,0.353271,0.315674
25:30.3,-0.217041,0.323975,0.354004
25:30.3,-0.30249,0.271729,0.37793
25:30.3,-0.299316,0.264893,0.289307
25:30.3,-0.232666,0.347656,-0.023926
25:30.3,-0.103271,0.444824,-0.382324
25:30.3,-0.039307,0.453125,-0.494141
25:30.3,-0.101807,0.299072,-0.470215
25:30.4,-0.298584,-0.206299,-0.357178
25:30.4,0.897461,2.601318,1.104736
25:30.4,-1.344971,-6.470703,7.999756
25:30.4,0.4021,1.05542,-2.097412
25:30.4,-0.15918,-0.710693,1.844971
25:30.4,0.115967,-0.140625,1.105225
25:30.4,-0.148438,-0.084717,0.954102
25:30.4,-0.135986,-0.045654,0.929199
25:30.4,-0.119629,-0.050781,0.925049
25:30.4,-0.123535,-0.059814,0.934814
25:30.5,-0.141602,-0.088379,0.963379
25:30.5,-0.114746,-0.094238,0.967529
25:30.5,-0.112061,-0.09375,0.985352
25:30.5,-0.079346,-0.09375,0.956543
25:30.5,-0.105469,-0.095459,0.965576
25:30.5,-0.094971,-0.078613,0.968994
25:30.5,-0.106445,-0.092529,0.970459
25:30.5,-0.109619,-0.080566,0.955322
25:30.5,-0.109375,-0.077637,0.952637
25:30.5,-0.109375,-0.078125,0.951416
25:30.6,-0.11084,-0.078125,0.968018
25:30.6,-0.095947,-0.078125,0.955566
25:30.6,-0.093262,-0.078125,0.952637
25:30.6,-0.092041,-0.078125,0.953125
25:30.6,-0.108643,-0.078125,0.953125
25:30.6,-0.094482,-0.078125,0.953125
25:30.6,-0.106934,-0.078125,0.953125
25:30.6,-0.109375,-0.078125,0.953125
25:30.6,-0.109375,-0.078125,0.953125
25:30.6,-0.11084,-0.078125,0.953125
25:30.7,-0.093994,-0.078125,0.953125
25:30.7,-0.107178,-0.078125,0.953125
25:30.7,-0.109375,-0.078125,0.951416
25:30.7,-0.109375,-0.078125,0.968262
25:30.7,-0.109375,-0.078125,0.955078
25:30.7,-0.109375,-0.078125,0.951416
25:30.7,-0.109375,-0.078125,0.968262
25:30.7,-0.109375,-0.078125,0.954834
25:30.7,-0.109375,-0.078125,0.952881
25:30.7,-0.109375,-0.078125,0.953125
25:30.8,-0.109375,-0.078125,0.953125
25:30.8,-0.109375,-0.078125,0.953125
25:30.8,-0.109375,-0.078125,0.953125
25:30.8,-0.109375,-0.078125,0.953125
25:30.8,-0.109375,-0.078125,0.953125
25:30.8,-0.109375,-0.078125,0.953125
25:30.8,-0.109375,-0.078125,0.953125
25:30.8,-0.108154,-0.078125,0.953125
25:30.8,-0.124512,-0.078125,0.951904
25:30.8,-0.11084,-0.078125,0.968506
25:30.9,-0.109131,-0.078125,0.95459
25:30.9,-0.109375,-0.078125,0.95166
25:30.9,-0.109375,-0.078125,0.968506
25:30.9,-0.109375,-0.078125,0.953369
25:30.9,-0.109375,-0.078125,0.968262
25:30.9,-0.109375,-0.078125,0.954346
25:30.9,-0.109375,-0.078125,0.952881
25:30.9,-0.109375,-0.078125,0.951904
25:30.9,-0.109375,-0.078125,0.968506
25:30.9,-0.109375,-0.078125,0.954102
25:31.0,-0.109375,-0.078125,0.951904
25:31.0,-0.109375,-0.078857,0.968506
25:31.0,-0.109375,-0.0625,0.954102
25:31.0,-0.109375,-0.076904,0.952881
25:31.0,-0.109375,-0.078125,0.953125
25:31.0,-0.109375,-0.078125,0.953125
25:31.0,-0.109375,-0.078125,0.953125
25:31.0,-0.109375,-0.078125,0.953125
25:31.0,-0.109375,-0.078125,0.952148
25:31.0,-0.109375,-0.078125,0.968506
25:31.1,-0.109375,-0.078125,0.953125
25:31.1,-0.109375,-0.078125,0.968506
25:31.1,-0.109375,-0.078613,0.953857
25:31.1,-0.109375,-0.062988,0.952393
25:31.1,-0.109375,-0.061768,0.968506
25:31.1,-0.109375,-0.077393,0.953613
25:31.1,-0.109375,-0.078125,0.952881
25:31.1,-0.109375,-0.078125,0.953125
25:31.1,-0.109375,-0.078125,0.953125
25:31.1,-0.109375,-0.078125,0.953125
25:31.2,-0.109375,-0.078125,0.953125
25:31.2,-0.109375,-0.078125,0.952637
25:31.2,-0.109375,-0.078125,0.968262
25:31.2,-0.108887,-0.077637,0.968018
25:31.2,-0.124756,-0.092773,0.998535
25:31.2,-0.109619,-0.124268,1.030518
25:31.2,-0.108887,-0.124268,1.029541
25:31.2,-0.124268,-0.155762,1.122803
25:31.2,-0.155518,-0.156494,1.169678
25:31.2,-0.171631,-0.123779,1.29126
25:31.3,-0.155029,-0.248535,1.666992
25:31.3,-0.296631,-0.26416,1.826416
25:31.3,-0.157471,-0.437256,1.892578
25:31.3,-0.031738,-0.266602,1.408691
25:31.3,0.031006,-0.09375,1.031738
25:31.3,0.015381,0.015625,0.796387
25:31.3,0.015381,0.0625,0.702393
25:31.3,0.015625,0.078613,0.608154
25:31.3,0.047119,0.172607,0.498291
25:31.3,0.062256,0.203613,0.405273
25:31.4,0.030518,0.250488,0.406738
25:31.4,-0.000977,0.249756,0.46875
25:31.4,-0.047852,0.250244,0.403076
25:31.4,-0.078857,0.282227,0.262939
25:31.4,-0.094971,0.312988,0.250732
25:31.4,-0.1604,0.311768,0.314453
25:31.4,-0.303223,0.280029,0.343018
25:31.4,-0.440918,0.264648,0.277588
25:31.4,-0.434814,0.249756,0.197266
25:31.4,-0.337402,0.267334,0.051025
25:31.5,-0.209473,0.314453,-0.19751
25:31.5,-0.040771,0.317627,-0.260498
25:31.5,-0.029297,0.054443,0.085938
25:31.5,-0.075928,0.501953,2.246826
25:31.5,-1.125244,-5.730225,7.79126
25:31.5,0.657959,1.945068,-2.429443
25:31.5,-0.221191,-1.265869,2.873779
25:31.5,0.125732,0.119385,0.604736
25:31.5,-0.169922,-0.200684,1.15625
25:31.5,-0.186279,-0.216064,1.359863
25:31.6,-0.141113,-0.136719,1.173096
25:31.6,-0.213867,-0.144043,1.429199
25:31.6,-0.344727,-0.236084,1.958496
25:31.6,-0.222656,-0.45752,2.058105
25:31.6,-0.111816,-0.293213,1.500488
25:31.6,0.010498,-0.089844,0.914551
25:31.6,0.066895,0.045654,0.576172
25:31.6,0.078125,0.151855,0.392334
25:31.6,0.057373,0.224365,0.372803
25:31.6,-0.008057,0.234131,0.378174
25:31.7,-0.067383,0.217773,0.42627
25:31.7,-0.078857,0.218018,0.432617
25:31.7,-0.078857,0.228027,0.320557
25:31.7,-0.099121,0.35376,0.112061
25:31.7,-0.165527,0.353027,0.169434
25:31.7,-0.220947,0.254883,0.310303
25:31.7,-0.177734,0.217285,0.315186
25:31.7,-0.081543,0.26001,0.083252
25:31.7,-0.024658,0.354004,-0.246826
25:31.7,-0.028076,0.358154,-0.441406
25:31.8,0.005127,0.467041,-0.334473
25:31.8,0.608398,0.962646,1.498779
25:31.8,-1.878662,-6.20459,7.511475
25:31.8,0.518555,2.374512,-2.800293
25:31.8,-0.154297,-1.204834,2.717041
25:31.8,0.115723,0.213379,0.55835
25:31.8,-0.190186,-0.138916,1.051514
25:31.8,-0.10376,-0.041748,0.92749
25:31.8,-0.11084,-0.063477,0.923584
25:31.8,-0.126465,-0.065918,0.95752
25:31.9,-0.123047,-0.096436,0.969971
25:31.9,-0.110107,-0.09375,0.96875
25:31.9,-0.122559,-0.091797,0.966553
25:31.9,-0.092773,-0.07666,0.953613
25:31.9,-0.108643,-0.078125,0.968018
25:31.9,-0.093994,-0.078125,0.953613
25:31.9,-0.11084,-0.078125,0.968262
25:31.9,-0.109375,-0.078125,0.951416
25:31.9,-0.109375,-0.078125,0.953125
25:31.9,-0.109375,-0.078125,0.953125
25:32.0,-0.109375,-0.078125,0.953125
25:32.0,-0.109375,-0.078125,0.953125
25:32.0,-0.109375,-0.078125,0.953125
25:32.0,-0.109375,-0.078125,0.953125
25:32.0,-0.109375,-0.078125,0.953125
25:32.0,-0.109375,-0.078125,0.952637
25:32.0,-0.109375,-0.078125,0.955322
25:32.0,-0.109375,-0.078125,0.970215
25:32.0,-0.109375,-0.078125,0.968994
25:32.0,-0.109375,-0.078125,0.966064
25:32.1,-0.109375,-0.078125,0.954102
25:32.1,-0.109375,-0.078125,0.968018
25:32.1,-0.109375,-0.078125,0.950928
25:32.1,-0.109375,-0.078125,0.955811
25:32.1,-0.109375,-0.078125,0.967773
25:32.1,-0.109375,-0.078125,0.951172
25:32.1,-0.109375,-0.078125,0.953125
25:32.1,-0.109619,-0.078125,0.953125
25:32.1,-0.106201,-0.078125,0.953125
25:32.1,-0.094482,-0.078125,0.952637
25:32.2,-0.111084,-0.078125,0.955811
25:32.2,-0.109375,-0.078125,0.970947
25:32.2,-0.109375,-0.078125,0.96582
25:32.2,-0.109375,-0.078125,0.951172
25:32.2,-0.109375,-0.078125,0.952637
25:32.2,-0.109619,-0.078125,0.956299
25:32.2,-0.105957,-0.078125,0.967529
25:32.2,-0.094727,-0.078125,0.950684
25:32.2,-0.111084,-0.078125,0.956055
25:32.2,-0.109375,-0.078125,0.970703
25:32.3,-0.109375,-0.078125,0.96875
25:32.3,-0.109375,-0.077637,0.968262
25:32.3,-0.108643,-0.081055,0.97168
25:32.3,-0.112305,-0.095703,0.985352
25:32.3,-0.125977,-0.093018,0.989502
25:32.3,-0.131836,-0.096191,1.024902
25:32.3,-0.156982,-0.113525,1.054688
25:32.3,-0.136963,-0.134033,1.0979
25:32.3,-0.14917,-0.156494,1.164307
25:32.3,-0.19458,-0.139648,1.196533
25:32.4,-0.261475,-0.162598,1.395996
25:32.4,-0.373291,-0.286133,1.780273
25:32.4,-0.172852,-0.479492,2.054688
25:32.4,0.043945,-0.265625,1.403564
25:32.4,0.151611,-0.050781,0.88208
25:32.4,0.119873,0.024658,0.84375
25:32.4,0.007568,-0.018799,0.915527
25:32.4,-0.030762,0.013184,0.794678
25:32.4,-0.080811,0.087646,0.682373
25:32.4,-0.110352,0.155273,0.576416
25:32.5,-0.062012,0.193848,0.478516
25:32.5,-0.026367,0.264404,0.419922
25:32.5,-0.057373,0.267578,0.480469
25:32.5,-0.115234,0.263428,0.44458
25:32.5,-0.164063,0.276123,0.290527
25:32.5,-0.160645,0.324219,0.1875
25:32.5,-0.170166,0.323975,0.255859
25:32.5,-0.154053,0.286865,0.334229
25:32.5,-0.158447,0.247803,0.379395
25:32.5,-0.147949,0.215332,0.341309
25:32.6,-0.084961,0.276855,0.071289
25:32.6,-0.00415,0.371826,-0.27417
25:32.6,0.008057,0.351318,-0.413086
25:32.6,-0.11499,0.446533,-0.61377
25:32.6,-0.152588,-1.709717,2.447266
25:32.6,-0.041992,-4.632813,7.095459
25:32.6,-0.091309,1.286377,-1.201904
25:32.6,0.06665,-0.172852,0.487549
25:32.6,-0.125732,-0.759277,2.331787
25:32.6,-0.069092,0.074463,0.693115
25:32.7,-0.460449,-0.357178,1.946289
25:32.7,-0.435059,-0.346436,2.300293
25:32.7,-0.267334,-0.494141,2.111328
25:32.7,0.121826,-0.174561,1.035645
25:32.7,0.176025,0.118164,0.42041
25:32.7,0.027832,0.145264,0.490234
25:32.7,-0.100098,0.117432,0.642334
25:32.7,-0.140381,0.064453,0.671143
25:32.7,-0.138428,0.109375,0.66626
25:32.7,-0.08252,0.138672,0.554199
25:32.8,-0.017822,0.248535,0.393799
25:32.8,0.000488,0.267578,0.334229
25:32.8,0.039063,0.289063,0.220703
25:32.8,0.034424,0.358154,0.104248
25:32.8,-0.017578,0.333496,0.192139
25:32.8,-0.162354,0.268555,0.304443
25:32.8,-0.236084,0.228516,0.26123
25:32.8,-0.177734,0.295166,-0.02124
25:32.8,-0.062988,0.398926,-0.407715
25:32.8,-0.006836,0.413086,-0.618408
25:32.9,-0.117188,0.724365,-1.023926
25:32.9,-0.244629,-2.598633,2.9729
25:32.9,0.021729,-4.827881,6.154785
25:32.9,0.425781,2.106689,-1.885254
25:32.9,0.21167,-0.701416,1.259521
25:32.9,-0.032227,-0.094482,1.213867
25:32.9,-0.148682,-0.080566,0.871826
25:32.9,-0.099365,-0.043945,0.942139
25:32.9,-0.100586,-0.055908,0.907227
25:32.9,-0.137207,-0.060059,0.954834
25:33.0,-0.132324,-0.099365,0.960449
25:33.0,-0.104736,-0.100098,0.943359
25:33.0,-0.110352,-0.106201,0.973145
25:33.0,-0.102783,-0.091309,0.969727
25:33.0,-0.0979,-0.09375,0.961914
25:33.0,-0.10498,-0.09375,0.956055
25:33.0,-0.09668,-0.09375,0.972168
25:33.0,-0.111572,-0.094971,0.963135
25:33.0,-0.109375,-0.086914,0.949463
25:33.0,-0.109375,-0.08252,0.959961
25:33.1,-0.110596,-0.090332,0.964111
25:33.1,-0.102295,-0.075684,0.95752
25:33.1,-0.096924,-0.078125,0.965332
25:33.1,-0.111572,-0.078125,0.950684
25:33.1,-0.109375,-0.078125,0.953125
25:33.1,-0.109375,-0.078125,0.953125
25:33.1,-0.109375,-0.078125,0.953125
25:33.1,-0.109375,-0.078125,0.953125
25:33.1,-0.109375,-0.078125,0.95166
25:33.1,-0.109375,-0.078125,0.958984
25:33.2,-0.109375,-0.078125,0.972412
25:33.2,-0.109375,-0.078125,0.962646
25:33.2,-0.109375,-0.078125,0.950684
25:33.2,-0.109375,-0.078125,0.953125
25:33.2,-0.109375,-0.078125,0.953125
25:33.2,-0.110596,-0.07666,0.953125
25:33.2,-0.103027,-0.085693,0.953125
25:33.2,-0.089844,-0.089844,0.953125
25:33.2,-0.099854,-0.075684,0.951416
25:33.2,-0.111572,-0.078125,0.960693
25:33.3,-0.109375,-0.078125,0.963135
25:33.3,-0.11084,-0.078125,0.958496
25:33.3,-0.101318,-0.078125,0.9646
25:33.3,-0.097656,-0.078125,0.950684
25:33.3,-0.111572,-0.078125,0.953125
25:33.3,-0.109375,-0.078125,0.953125
25:33.3,-0.109375,-0.078125,0.953125
25:33.3,-0.109375,-0.078125,0.953125
25:33.3,-0.109375,-0.078125,0.953125
25:33.3,-0.109375,-0.078125,0.953125
25:33.4,-0.109375,-0.078125,0.953125
25:33.4,-0.109375,-0.078125,0.953125
25:33.4,-0.109375,-0.078125,0.953125
25:33.4,-0.109375,-0.078125,0.953125
25:33.4,-0.109375,-0.078125,0.953125
25:33.4,-0.109375,-0.078125,0.953125
25:33.4,-0.109375,-0.078125,0.951416
25:33.4,-0.109375,-0.078125,0.959717
25:33.4,-0.109375,-0.076416,0.970703
25:33.4,-0.109375,-0.084961,0.965332
25:33.5,-0.105957,-0.090576,0.975586
25:33.5,-0.124756,-0.112549,1.02832
25:33.5,-0.13623,-0.1521,1.072754
25:33.5,-0.124512,-0.161865,1.125977
25:33.5,-0.156738,-0.186279,1.272461
25:33.5,-0.20459,-0.210693,1.506104
25:33.5,-0.351807,-0.208496,1.808838
25:33.5,-0.361328,-0.394287,2.052979
25:33.5,-0.07373,-0.39624,1.662354
25:33.5,0.084229,-0.088379,1.026367
25:33.6,0.087891,-0.020508,0.818359
25:33.6,0.068848,0.060547,0.602539
25:33.6,0.026123,0.150635,0.518799
25:33.6,-0.024414,0.176758,0.492676
25:33.6,-0.063965,0.229248,0.348633
25:33.6,-0.093262,0.265137,0.321777
25:33.6,-0.126221,0.258301,0.421875
25:33.6,-0.155762,0.247803,0.377686
25:33.6,-0.141357,0.29541,0.182617
25:33.6,-0.122803,0.354736,0.161377
25:33.7,-0.163086,0.306152,0.311035
25:33.7,-0.204834,0.215088,0.414795
25:33.7,-0.205078,0.1875,0.372314
25:33.7,-0.114502,0.235352,0.110107
25:33.7,0.005127,0.323486,-0.193359
25:33.7,0.01001,0.31665,-0.254639
25:33.7,-0.071777,0.943359,-1.078613
25:33.7,-0.192383,-4.075684,5.066406
25:33.7,0.109131,-2.970947,4.184814
25:33.7,0.332275,1.293701,-0.950928
25:33.8,0.009766,-0.820313,1.791016
25:33.8,-0.093506,-0.144287,1.192383
25:33.8,-0.227539,-0.256592,1.335938
25:33.8,-0.356689,-0.277832,2.028809
25:33.8,-0.251709,-0.450439,2.486816
25:33.8,-0.020996,-0.401611,1.793457
25:33.8,0.125977,-0.031006,0.770264
25:33.8,0.048096,0.021484,0.605713
25:33.8,-0.001953,0.040771,0.649658
25:33.8,-0.041504,0.046631,0.669189
25:33.9,-0.080078,0.144531,0.462646
25:33.9,-0.05957,0.280273,0.2771
25:33.9,-0.061523,0.291748,0.290039
25:33.9,-0.07959,0.251465,0.33252
25:33.9,-0.040039,0.241943,0.258789
25:33.9,0.016602,0.327148,0.108643
25:33.9,-0.005615,0.391846,0.12207
25:33.9,-0.129883,0.313721,0.302979
25:33.9,-0.241455,0.215088,0.353516
25:33.9,-0.250732,0.263672,0.104736
25:34.0,-0.128174,0.37207,-0.258789
25:34.0,-0.016846,0.431152,-0.565186
25:34.0,-0.079834,0.104248,-0.739258
25:34.0,0.480713,2.05835,0.092285
25:34.0,-1.241699,-3.448486,6.973633
25:34.0,-0.766602,-1.82373,1.577637
25:34.0,0.148926,0.516357,-0.125488
25:34.0,-0.184082,-1.023682,2.339111
25:34.0,0.036621,0.19751,0.542725
25:34.0,-0.12915,-0.153564,1.127441
25:34.1,-0.074463,-0.009766,0.833984
25:34.1,-0.144287,-0.105957,0.996582
25:34.1,-0.133301,-0.073242,0.928223
25:34.1,-0.125488,-0.096924,0.964355
25:34.1,-0.115967,-0.09375,0.962402
25:34.1,-0.109863,-0.09375,0.959229
25:34.1,-0.098145,-0.09375,0.960205
25:34.1,-0.10083,-0.09375,0.970215
25:34.1,-0.11084,-0.09375,0.96875
25:34.1,-0.109375,-0.095703,0.96875
25:34.2,-0.109375,-0.084717,0.970947
25:34.2,-0.109375,-0.076416,0.959473
25:34.2,-0.109375,-0.075684,0.951416
25:34.2,-0.109375,-0.089355,0.953125
25:34.2,-0.109375,-0.086182,0.953125
25:34.2,-0.109375,-0.076416,0.953125
25:34.2,-0.109375,-0.078125,0.953125
25:34.2,-0.111572,-0.078125,0.950684
25:34.2,-0.097656,-0.078125,0.9646
25:34.2,-0.101318,-0.078125,0.960938
25:34.3,-0.11084,-0.075684,0.949219
25:34.3,-0.109375,-0.0896,0.962402
25:34.3,-0.109375,-0.085693,0.970215
25:34.3,-0.109375,-0.076416,0.970947
25:34.3,-0.109375,-0.078125,0.959229
25:34.3,-0.109375,-0.078125,0.951416
25:34.3,-0.109375,-0.078125,0.953125
25:34.3,-0.109375,-0.075684,0.953125
25:34.3,-0.109375,-0.089844,0.953125
25:34.3,-0.109375,-0.085449,0.950684
25:34.4,-0.109375,-0.07666,0.964844
25:34.4,-0.109375,-0.078125,0.960449
25:34.4,-0.109375,-0.075684,0.949219
25:34.4,-0.111572,-0.090088,0.965088
25:34.4,-0.097168,-0.085205,0.958008
25:34.4,-0.102051,-0.07666,0.963623
25:34.4,-0.110596,-0.078125,0.960205
25:34.4,-0.111572,-0.078125,0.95166
25:34.4,-0.097168,-0.078125,0.953125
25:34.4,-0.104492,-0.078125,0.950684
25:34.5,-0.098389,-0.078125,0.965332
25:34.5,-0.102295,-0.075684,0.957764
25:34.5,-0.110596,-0.087891,0.959473
25:34.5,-0.106934,-0.094971,0.97998
25:34.5,-0.119385,-0.091309,0.985596
25:34.5,-0.130859,-0.10376,0.979736
25:34.5,-0.100098,-0.108154,0.997559
25:34.5,-0.111328,-0.117188,1.046143
25:34.5,-0.125,-0.138672,1.076172
25:34.5,-0.137451,-0.133789,1.060791
25:34.6,-0.13623,-0.094971,1.115967
25:34.6,-0.082275,-0.192383,1.391357
25:34.6,-0.195313,-0.208008,1.546143
25:34.6,-0.209473,-0.342529,1.885254
25:34.6,-0.087158,-0.381836,1.813232
25:34.6,0.000488,-0.194824,1.254395
25:34.6,0.037598,0.009766,0.839111
25:34.6,0.007813,0.062988,0.808594
25:34.6,-0.048096,0.02124,0.851563
25:34.6,-0.078613,0.036621,0.824951
25:34.7,-0.073242,0.026855,0.815918
25:34.7,-0.033203,0.075928,0.72168
25:34.7,-0.051514,0.146484,0.672852
25:34.7,-0.125977,0.156982,0.737793
25:34.7,-0.136475,0.157471,0.66626
25:34.7,-0.11084,0.213135,0.536621
25:34.7,-0.116699,0.246826,0.522949
25:34.7,-0.13208,0.254639,0.480957
25:34.7,-0.153809,0.287354,0.291748
25:34.7,-0.203125,0.367188,0.122803
25:34.8,-0.282471,0.406494,0.136963
25:34.8,-0.417969,0.418701,0.159912
25:34.8,-0.559082,0.351563,0.124268
25:34.8,-0.51709,0.306885,-0.077393
25:34.8,-0.355469,0.402344,-0.453613
25:34.8,-0.129883,0.489502,-0.619385
25:34.8,-0.065918,0.341553,-0.579346
25:34.8,-0.344971,0.032715,-1.285889
25:34.8,2.0979,-0.512695,6.512695
25:34.8,0.230713,-1.248291,5.06543
25:34.9,-0.324463,0.576904,-1.46582
25:34.9,-0.032471,-0.4729,1.366455
25:34.9,-0.18335,-0.362305,1.35083
25:34.9,-0.091309,-0.045898,0.906006
25:34.9,-0.074219,-0.064209,0.935059
25:34.9,-0.11792,-0.101074,0.951416
25:34.9,-0.128906,-0.11792,0.984863
25:34.9,-0.113525,-0.106201,0.9646
25:34.9,-0.113037,-0.122803,0.982178
25:34.9,-0.082031,-0.116455,0.973633
25:35.0,-0.10376,-0.096924,0.967773
25:35.0,-0.083496,-0.092773,0.966309
25:35.0,-0.099365,-0.09375,0.982422
25:35.0,-0.11084,-0.095947,0.97583
25:35.0,-0.109375,-0.082031,0.956299
25:35.0,-0.111572,-0.077148,0.952148
25:35.0,-0.097656,-0.078125,0.953125
25:35.0,-0.092773,-0.078125,0.953125
25:35.0,-0.09375,-0.075684,0.953125
25:35.0,-0.09375,-0.092041,0.950928
25:35.1,-0.091553,-0.08252,0.967041
25:35.1,-0.105469,-0.077393,0.95752
25:35.1,-0.109863,-0.078125,0.950195
25:35.1,-0.109375,-0.078125,0.967041
25:35.1,-0.109375,-0.078125,0.95752
25:35.1,-0.109375,-0.078125,0.950195
25:35.1,-0.109375,-0.078125,0.967041
25:35.1,-0.109375,-0.075928,0.957275
25:35.1,-0.109375,-0.092041,0.952393
25:35.1,-0.109375,-0.082275,0.950928
25:35.2,-0.109375,-0.077393,0.967285
25:35.2,-0.109375,-0.078125,0.957031
25:35.2,-0.109375,-0.078125,0.950195
25:35.2,-0.111328,-0.078125,0.967285
25:35.2,-0.094971,-0.078125,0.957031
25:35.2,-0.105225,-0.078125,0.952393
25:35.2,-0.109863,-0.078125,0.953125
25:35.2,-0.109375,-0.078125,0.950928
25:35.2,-0.109375,-0.078125,0.967285
25:35.2,-0.109375,-0.075928,0.956787
25:35.3,-0.109375,-0.092529,0.952393
25:35.3,-0.109375,-0.081787,0.953125
25:35.3,-0.109375,-0.077393,0.953125
25:35.3,-0.109375,-0.078125,0.953125
25:35.3,-0.109375,-0.078125,0.953125
25:35.3,-0.107178,-0.078125,0.953125
25:35.3,-0.123779,-0.078125,0.953125
25:35.3,-0.112793,-0.078125,0.950928
25:35.3,-0.108887,-0.078125,0.965576
25:35.3,-0.109375,-0.078125,0.970947
25:35.4,-0.109375,-0.078125,0.956055
25:35.4,-0.109375,-0.078125,0.950684
25:35.4,-0.109375,-0.078125,0.96582
25:35.4,-0.109375,-0.078125,0.968994
25:35.4,-0.109375,-0.078125,0.970459
25:35.4,-0.109375,-0.076172,0.955811
25:35.4,-0.109375,-0.092773,0.952637
25:35.4,-0.109375,-0.079346,0.953125
25:35.4,-0.109375,-0.092285,0.953125
25:35.4,-0.109375,-0.081055,0.953125
25:35.5,-0.109375,-0.077637,0.953125
25:35.5,-0.109375,-0.078125,0.953125
25:35.5,-0.109375,-0.078125,0.953125
25:35.5,-0.109375,-0.078125,0.953125
25:35.5,-0.109375,-0.078125,0.953125
25:35.5,-0.109375,-0.076172,0.953125
25:35.5,-0.109375,-0.093018,0.951172
25:35.5,-0.109375,-0.080811,0.966309
25:35.5,-0.109375,-0.077637,0.970703
25:35.5,-0.109375,-0.078125,0.955322
25:35.6,-0.109375,-0.078125,0.952637
25:35.6,-0.109375,-0.078125,0.953125
25:35.6,-0.109375,-0.078125,0.953125
25:35.6,-0.109375,-0.078125,0.953125
25:35.6,-0.109375,-0.078125,0.953125
25:35.6,-0.109375,-0.078125,0.953125
25:35.6,-0.109375,-0.078125,0.951416
25:35.6,-0.109375,-0.076416,0.966553
25:35.6,-0.107666,-0.093018,0.96875
25:35.6,-0.122803,-0.078613,0.967041
25:35.7,-0.128174,-0.091309,0.983887
25:35.7,-0.096191,-0.09375,0.967773
25:35.7,-0.106934,-0.09375,0.997314
25:35.7,-0.109375,-0.09375,0.986572
25:35.7,-0.109375,-0.094971,0.982666
25:35.7,-0.106445,-0.073975,0.983643
25:35.7,-0.134033,-0.124512,1.115234
25:35.7,-0.167236,-0.217285,1.36792
25:35.7,-0.163818,-0.310059,1.523926
25:35.7,-0.420654,-0.246826,1.464844
25:35.8,-0.339355,-0.367432,1.765869
25:35.8,-0.211426,-0.315674,1.625488
25:35.8,-0.064209,-0.207275,1.365967
25:35.8,-0.005859,-0.097412,1.034912
25:35.8,0.02832,0.020996,0.770508
25:35.8,0.033936,0.029541,0.747803
25:35.8,0.00293,0.053223,0.772217
25:35.8,-0.000244,0.124756,0.507568
25:35.8,0.000977,0.237793,0.319824
25:35.8,-0.010498,0.280273,0.365723
25:35.9,-0.054932,0.265869,0.414307
25:35.9,-0.107666,0.275146,0.290527
25:35.9,-0.078857,0.333984,0.106201
25:35.9,-0.103271,0.405762,0.098145
25:35.9,-0.148193,0.354492,0.21875
25:35.9,-0.213867,0.274414,0.309082
25:35.9,-0.226074,0.21875,0.297363
25:35.9,-0.125488,0.254639,0.112305
25:35.9,0.006836,0.368164,-0.188965
25:35.9,0.02002,0.372314,-0.364014
25:36.0,-0.037842,0.179932,-0.209717
25:36.0,-0.008057,0.720947,0.266846
25:36.0,-2.056641,-7.935303,7.999756
25:36.0,0.458984,1.739746,-2.054932
25:36.0,-0.068604,-1.072021,2.52832
25:36.0,0.111084,-0.010498,0.940186
25:36.0,-0.193604,-0.219727,1.180908
25:36.0,-0.324463,-0.411621,1.673584
25:36.0,-0.298828,-0.138672,1.774902
25:36.0,-0.311279,-0.476074,2.18457
25:36.1,-0.000488,-0.28125,1.536621
25:36.1,0.033203,-0.181152,1.126953
25:36.1,-0.014648,-0.059326,0.748535
25:36.1,0.014648,0.11499,0.404785
25:36.1,0.001221,0.183838,0.373779
25:36.1,-0.014404,0.216309,0.406006
25:36.1,-0.029541,0.248779,0.376709
25:36.1,-0.060791,0.25,0.362793
25:36.1,-0.077881,0.246826,0.275146
25:36.1,-0.061523,0.340088,0.066895
25:36.2,-0.106445,0.360596,0.119629
25:36.2,-0.154785,0.299805,0.231201
25:36.2,-0.157227,0.250244,0.239746
25:36.2,-0.111816,0.278076,0.028809
25:36.2,-0.048096,0.373047,-0.318115
25:36.2,-0.045898,0.362793,-0.438477
25:36.2,-0.101563,0.177246,-0.320313
25:36.2,0.41748,1.890381,1.599365
25:36.2,-1.78125,-5.637207,7.999756
25:36.2,0.450439,1.758545,-3.016602
25:36.3,-0.418701,-1.640381,3.432861
25:36.3,0.216553,0.487793,0.00293
25:36.3,-0.216553,-0.355957,1.494385
25:36.3,-0.062744,0.061035,0.705322
25:36.3,-0.140381,-0.108887,1.046143
25:36.3,-0.125,-0.0625,0.921875
25:36.3,-0.124756,-0.09375,0.984375
25:36.3,-0.109131,-0.109131,0.968506
25:36.3,-0.093506,-0.077881,0.96875
25:36.3,-0.09375,-0.09375,0.96875
25:36.4,-0.109131,-0.09375,0.968506
25:36.4,-0.09375,-0.09375,0.953125
25:36.4,-0.109375,-0.09375,0.96875
25:36.4,-0.109375,-0.093506,0.968506
25:36.4,-0.109375,-0.077881,0.952881
25:36.4,-0.109375,-0.078125,0.953125
25:36.4,-0.109375,-0.078125,0.953125
25:36.4,-0.109375,-0.078125,0.953125
25:36.4,-0.109375,-0.078125,0.952881
25:36.4,-0.109375,-0.078125,0.953369
25:36.5,-0.109375,-0.078125,0.968994
25:36.5,-0.109375,-0.078125,0.968262
25:36.5,-0.109375,-0.078125,0.952637
25:36.5,-0.109375,-0.078125,0.953125
25:36.5,-0.109375,-0.078125,0.953125
25:36.5,-0.109131,-0.078125,0.953125
25:36.5,-0.109863,-0.078125,0.953125
25:36.5,-0.124756,-0.077881,0.952881
25:36.5,-0.108643,-0.078613,0.953613
25:36.5,-0.109375,-0.093506,0.968506
25:36.6,-0.109375,-0.077393,0.952393
25:36.6,-0.109375,-0.078125,0.953125
25:36.6,-0.109375,-0.078125,0.953125
25:36.6,-0.109375,-0.078125,0.953125
25:36.6,-0.109375,-0.078125,0.953125
25:36.6,-0.109375,-0.078125,0.952881
25:36.6,-0.109375,-0.078125,0.953857
25:36.6,-0.109375,-0.078125,0.968506
25:36.6,-0.109375,-0.078125,0.952148
25:36.6,-0.109375,-0.078125,0.954102
25:36.7,-0.109375,-0.078125,0.968506
25:36.7,-0.109375,-0.078125,0.952148
25:36.7,-0.109375,-0.078125,0.953125
25:36.7,-0.109375,-0.078125,0.952881
25:36.7,-0.109375,-0.078125,0.954346
25:36.7,-0.109375,-0.078125,0.968506
25:36.7,-0.109375,-0.078125,0.951904
25:36.7,-0.109375,-0.078125,0.953125
25:36.7,-0.109375,-0.078125,0.953125
25:36.7,-0.109375,-0.078125,0.953125
25:36.8,-0.109375,-0.078125,0.953125
25:36.8,-0.109375,-0.077881,0.952881
25:36.8,-0.109375,-0.079346,0.954346
25:36.8,-0.108887,-0.096191,0.970947
25:36.8,-0.113525,-0.111572,0.989258
25:36.8,-0.161133,-0.130371,1.04126
25:36.8,-0.173828,-0.177734,1.125732
25:36.8,-0.194336,-0.214111,1.263916
25:36.8,-0.295898,-0.275635,1.455566
25:36.8,-0.516846,-0.169922,1.556885
25:36.9,-0.424316,-0.302002,2.078369
25:36.9,-0.134277,-0.51001,2.08374
25:36.9,0.146973,-0.212646,1.367676
25:36.9,0.226563,-0.087891,0.98291
25:36.9,0.200684,0.003906,0.734375
25:36.9,0.179688,0.111572,0.529785
25:36.9,0.111084,0.185547,0.414063
25:36.9,0.03125,0.245605,0.309814
25:36.9,-0.046875,0.285645,0.266602
25:36.9,-0.125977,0.279053,0.341553
25:37.0,-0.197266,0.264648,0.363281
25:37.0,-0.200684,0.295166,0.207031
25:37.0,-0.168701,0.378906,0.148193
25:37.0,-0.171631,0.315918,0.303955
25:37.0,-0.174805,0.253174,0.378418
25:37.0,-0.182129,0.212646,0.439697
25:37.0,-0.107422,0.228027,0.313477
25:37.0,-0.008057,0.315918,-0.021973
25:37.0,0.069824,0.381104,-0.280273
25:37.0,0.010742,0.316162,-0.31958
25:37.1,-0.087402,0.318115,-0.070313
25:37.1,-0.361084,-0.90332,2.099609
25:37.1,-1.327393,-6.464355,7.202148
25:37.1,0.626465,2.503174,-2.52002
25:37.1,-0.087402,-0.871338,2.312744
25:37.1,0.119385,0.056885,0.867188
25:37.1,-0.169434,-0.043701,0.814697
25:37.1,-0.120117,-0.089844,1.045654
25:37.1,-0.112793,-0.03125,0.87085
25:37.1,-0.141846,-0.085938,0.976318
25:37.2,-0.120605,-0.095459,0.953857
25:37.2,-0.107422,-0.093994,0.970459
25:37.2,-0.109375,-0.091064,0.968994
25:37.2,-0.109375,-0.076172,0.965576
25:37.2,-0.109375,-0.078125,0.954102
25:37.2,-0.109375,-0.078125,0.967773
25:37.2,-0.109375,-0.078125,0.951172
25:37.2,-0.109375,-0.078125,0.953125
25:37.2,-0.109375,-0.078125,0.953125
25:37.2,-0.109375,-0.078125,0.953125
25:37.3,-0.109375,-0.078125,0.953125
25:37.3,-0.108887,-0.078125,0.953125
25:37.3,-0.112549,-0.078125,0.953125
25:37.3,-0.123779,-0.078125,0.953125
25:37.3,-0.107178,-0.078125,0.953125
25:37.3,-0.109619,-0.078125,0.953125
25:37.3,-0.105713,-0.078125,0.953125
25:37.3,-0.094727,-0.078125,0.953125
25:37.3,-0.111328,-0.078125,0.953125
25:37.3,-0.109375,-0.078125,0.952393
25:37.4,-0.109375,-0.078125,0.956299
25:37.4,-0.109375,-0.076904,0.970215
25:37.4,-0.108154,-0.084473,0.970703
25:37.4,-0.114746,-0.111084,0.989014
25:37.4,-0.151123,-0.121338,1.040039
25:37.4,-0.175293,-0.185059,1.150391
25:37.4,-0.171631,-0.219482,1.241211
25:37.4,-0.203369,-0.239014,1.396729
25:37.4,-0.342529,-0.191895,1.638672
25:37.4,-0.423584,-0.351074,2.084473
25:37.5,-0.041748,-0.445557,1.818848
25:37.5,0.251709,-0.07373,0.900879
25:37.5,0.243896,0.084473,0.623535
25:37.5,0.107178,0.13623,0.617676
25:37.5,-0.053223,0.057617,0.678711
25:37.5,-0.125488,0.104492,0.607666
25:37.5,-0.205322,0.129639,0.638428
25:37.5,-0.198975,0.160645,0.561279
25:37.5,-0.160645,0.233154,0.469727
25:37.5,-0.133057,0.23584,0.484619
25:37.6,-0.118896,0.236572,0.446533
25:37.6,-0.106445,0.26123,0.342285
25:37.6,-0.11084,0.279297,0.325439
25:37.6,-0.138672,0.238525,0.427002
25:37.6,-0.180664,0.20874,0.449219
25:37.6,-0.163574,0.207275,0.409668
25:37.6,-0.100586,0.244385,0.204346
25:37.6,-0.022949,0.285156,-0.054688
25:37.6,0.00708,0.309082,-0.176758
25:37.6,-0.065186,0.354248,-0.472168
25:37.7,0.04126,-0.75,2.442383
25:37.7,0.151123,-2.77002,7.670898
25:37.7,-0.520508,-0.077393,0.05957
25:37.7,-0.020752,0.539551,-0.362061
25:37.7,-0.128906,-0.764648,2.435059
25:37.7,-0.013672,0.308838,0.159668
25:37.7,-0.17041,-0.254395,1.35083
25:37.7,-0.077393,0.045166,0.741455
25:37.7,-0.131592,-0.111816,1.019043
25:37.7,-0.126709,-0.051758,0.914063
25:37.8,-0.115234,-0.095947,0.98584
25:37.8,-0.094482,-0.075684,0.953857
25:37.8,-0.106934,-0.078125,0.965576
25:37.8,-0.091309,-0.078125,0.955322
25:37.8,-0.092773,-0.078125,0.970947
25:37.8,-0.098145,-0.078125,0.96875
25:37.8,-0.111572,-0.078125,0.969482
25:37.8,-0.109375,-0.078125,0.963867
25:37.8,-0.109375,-0.078125,0.950684
25:37.8,-0.109375,-0.078125,0.953125
25:37.9,-0.108154,-0.078125,0.953125
25:37.9,-0.114014,-0.078125,0.953125
25:37.9,-0.128174,-0.078125,0.953125
25:37.9,-0.120117,-0.078125,0.953125
25:37.9,-0.106934,-0.078125,0.951904
25:37.9,-0.109375,-0.078125,0.958008
25:37.9,-0.109375,-0.078125,0.971924
25:37.9,-0.109375,-0.078125,0.963623
25:37.9,-0.109375,-0.078125,0.949707
25:37.9,-0.109375,-0.078125,0.958008
25:38.0,-0.110352,-0.078125,0.972168
25:38.0,-0.103027,-0.078125,0.962402
25:38.0,-0.096436,-0.078125,0.95459
25:38.0,-0.110352,-0.075684,0.973877
25:38.0,-0.111084,-0.086182,0.992432
25:38.0,-0.145264,-0.12207,1.035156
25:38.0,-0.170654,-0.154541,1.107666
25:38.0,-0.120605,-0.182861,1.19043
25:38.0,-0.119873,-0.183105,1.241455
25:38.0,-0.206543,-0.164063,1.354736
25:38.1,-0.284912,-0.239258,1.710449
25:38.1,-0.194092,-0.359375,1.876221
25:38.1,0.034668,-0.248047,1.421387
25:38.1,0.089111,-0.045898,0.872803
25:38.1,0.054932,0.040527,0.75293
25:38.1,-0.060059,0.056885,0.794434
25:38.1,-0.133057,0.040527,0.755859
25:38.1,-0.150635,0.092285,0.651611
25:38.1,-0.159668,0.126953,0.643555
25:38.1,-0.150391,0.178711,0.57666
25:38.2,-0.136963,0.215576,0.506836
25:38.2,-0.147461,0.220947,0.507568
25:38.2,-0.155273,0.213379,0.502441
25:38.2,-0.126709,0.241699,0.364014
25:38.2,-0.100586,0.292969,0.270264
25:38.2,-0.128174,0.272217,0.361084
25:38.2,-0.161133,0.232178,0.397461
25:38.2,-0.127441,0.214355,0.335449
25:38.2,-0.061279,0.256104,0.161377
25:38.2,0.013428,0.332275,-0.134521
25:38.3,0.047852,0.327148,-0.285645
25:38.3,-0.0979,0.123535,-0.667236
25:38.3,0.456787,0.626465,2.141602
25:38.3,0.148682,-0.712891,6.404053
25:38.3,-0.936768,-1.224854,1.24292
25:38.3,-0.071777,0.641113,-0.711426
25:38.3,-0.246338,-0.840576,2.498291
25:38.3,0.015381,0.275391,0.235352
25:38.3,-0.16748,-0.252197,1.32373
25:38.3,-0.104248,0.005615,0.803711
25:38.4,-0.133057,-0.105225,1.010498
25:38.4,-0.112549,-0.068359,0.913574
25:38.4,-0.12085,-0.099609,0.979004
25:38.4,-0.108643,-0.087158,0.962158
25:38.4,-0.101318,-0.074219,0.949219
25:38.4,-0.099365,-0.084473,0.960938
25:38.4,-0.103516,-0.095947,0.964355
25:38.4,-0.0979,-0.095215,0.950684
25:38.4,-0.111572,-0.087158,0.953125
25:38.4,-0.109375,-0.075684,0.953125
25:38.5,-0.109375,-0.078125,0.951416
25:38.5,-0.109375,-0.078125,0.959717
25:38.5,-0.11084,-0.078125,0.972412
25:38.5,-0.10083,-0.078125,0.961914
25:38.5,-0.098145,-0.078125,0.949219
25:38.5,-0.113037,-0.078125,0.959717
25:38.5,-0.10083,-0.076416,0.969238
25:38.5,-0.09668,-0.083252,0.970459
25:38.5,-0.116699,-0.099365,1.001953
25:38.5,-0.135498,-0.121826,1.051514
25:38.6,-0.130615,-0.158691,1.105225
25:38.6,-0.141846,-0.177734,1.159668
25:38.6,-0.169678,-0.157959,1.259033
25:38.6,-0.271729,-0.164795,1.44043
25:38.6,-0.287109,-0.309814,1.761963
25:38.6,-0.07251,-0.365723,1.745117
25:38.6,0.06543,-0.181396,1.204834
25:38.6,0.109863,-0.040039,0.90332
25:38.6,0.040039,0.019775,0.864746
25:38.6,-0.053223,0.019531,0.890625
25:38.7,-0.10083,0.00293,0.858154
25:38.7,-0.113525,0.060791,0.748047
25:38.7,-0.111084,0.111084,0.717285
25:38.7,-0.100098,0.14917,0.689453
25:38.7,-0.098877,0.18335,0.602539
25:38.7,-0.107666,0.195068,0.5625
25:38.7,-0.120361,0.212402,0.565918
25:38.7,-0.157715,0.217041,0.554932
25:38.7,-0.18335,0.226074,0.462646
25:38.7,-0.191162,0.283936,0.318115
25:38.8,-0.177979,0.326172,0.274414
25:38.8,-0.179199,0.29541,0.344727
25:38.8,-0.195068,0.234863,0.405762
25:38.8,-0.125977,0.2146,0.362061
25:38.8,-0.013916,0.253418,0.157715
25:38.8,0.044678,0.313965,-0.131348
25:38.8,0.048828,0.341553,-0.317871
25:38.8,-0.133301,-0.134766,-0.662842
25:38.8,0.527832,2.272217,1.1521
25:38.8,-0.553223,-0.932861,7.322998
25:38.9,-0.937988,-1.55249,2.142822
25:38.9,-0.014893,0.470215,-0.666016
25:38.9,-0.128906,-0.950684,2.348145
25:38.9,0.023682,0.239014,0.470459
25:38.9,-0.166016,-0.182617,1.178711
25:38.9,-0.088623,-0.010254,0.842285
25:38.9,-0.130615,-0.088379,0.98999
25:38.9,-0.125,-0.063232,0.93042
25:38.9,-0.128906,-0.097168,0.992432
25:38.9,-0.106689,-0.10376,0.993408
25:39.0,-0.100098,-0.10083,0.988525
25:39.0,-0.10083,-0.099854,1.01001
25:39.0,-0.102051,-0.113037,1.017334
25:39.0,-0.102783,-0.105225,1.025879
25:39.0,-0.087646,-0.077393,0.969971
25:39.0,-0.108154,-0.046387,0.940674
25:39.0,-0.138916,-0.057373,0.976563
25:39.0,-0.131836,-0.092041,1.043213
25:39.0,-0.127197,-0.14209,1.150635
25:39.0,-0.156982,-0.142578,1.143066
25:39.1,-0.189941,-0.119385,1.20874
25:39.1,-0.174316,-0.197266,1.390625
25:39.1,-0.096924,-0.188965,1.326416
25:39.1,-0.036621,-0.067383,1.08374
25:39.1,-0.02124,-0.001465,0.915039
25:39.1,-0.052734,-0.004883,0.936523
25:39.1,-0.102539,-0.017334,0.999512
25:39.1,-0.108398,-0.015625,1.003906
25:39.1,-0.078857,-0.015625,1.047607
25:39.1,-0.041504,-0.019775,1.052246
25:39.2,-0.025635,0.001709,1.016846
25:39.2,-0.037842,0.016602,1.029053
25:39.2,-0.061523,0.022217,1.015137
25:39.2,-0.057129,0.030762,0.967773
25:39.2,0.01416,0.086182,0.828369
25:39.2,0.074707,0.157715,0.685059
25:39.2,0.032471,0.187744,0.674805
25:39.2,-0.066406,0.175537,0.690918
25:39.2,-0.155273,0.183838,0.638428
25:39.2,-0.229248,0.217773,0.553467
25:39.3,-0.263184,0.253662,0.410645
25:39.3,-0.265137,0.333496,0.282227
25:39.3,-0.328369,0.362549,0.26416
25:39.3,-0.367188,0.32373,0.249268
25:39.3,-0.368164,0.307129,0.194824
25:39.3,-0.340332,0.314941,0.062256
25:39.3,-0.22998,0.348389,-0.202637
25:39.3,-0.094971,0.438965,-0.476074
25:39.3,-0.099365,0.395264,-0.591309
25:39.3,-0.448486,0.425049,-1.546143
25:39.4,1.253906,-1.82251,5.66748
25:39.4,0.551514,-1.470703,5.136719
25:39.4,-0.206299,0.785645,-1.283936
25:39.4,0.035645,-0.205811,0.951904
25:39.4,-0.174316,-0.439697,1.587891
25:39.4,-0.125977,0.039063,0.749268
25:39.4,-0.080566,-0.0896,1.018799
25:39.4,-0.10376,-0.082275,0.929443
25:39.4,-0.131348,-0.098145,0.969238
25:39.4,-0.115234,-0.100098,0.9646
25:39.5,-0.110107,-0.101807,0.971924
25:39.5,-0.097168,-0.113037,0.979736
25:39.5,-0.104248,-0.099609,0.955322
25:39.5,-0.098633,-0.092285,0.961426
25:39.5,-0.102051,-0.09375,0.972168
25:39.5,-0.110596,-0.09375,0.95874
25:39.5,-0.109375,-0.09375,0.949463
25:39.5,-0.109375,-0.09375,0.965088
25:39.5,-0.111572,-0.09375,0.957764
25:39.5,-0.099365,-0.095947,0.963867
25:39.6,-0.092285,-0.081299,0.959961
25:39.6,-0.09375,-0.08667,0.949463
25:39.6,-0.091309,-0.094971,0.965332
25:39.6,-0.105957,-0.09375,0.959717
25:39.6,-0.098145,-0.095947,0.95166
25:39.6,-0.102539,-0.083496,0.953125
25:39.6,-0.110596,-0.074463,0.953125
25:39.6,-0.109375,-0.088135,0.953125
25:39.6,-0.109375,-0.097168,0.953125
25:39.6,-0.109375,-0.081055,0.953125
25:39.7,-0.109375,-0.087158,0.953125
25:39.7,-0.109375,-0.097168,0.953125
25:39.7,-0.109375,-0.083252,0.953125
25:39.7,-0.111572,-0.076904,0.953125
25:39.7,-0.096436,-0.078125,0.950684
25:39.7,-0.103027,-0.078125,0.96582
25:39.7,-0.110352,-0.078125,0.959229
25:39.7,-0.109375,-0.078125,0.951904
25:39.7,-0.109375,-0.078125,0.953125
25:39.7,-0.109375,-0.078125,0.953125
25:39.8,-0.109375,-0.078125,0.953125
25:39.8,-0.109375,-0.078125,0.953125
25:39.8,-0.109375,-0.078125,0.953125
25:39.8,-0.109375,-0.078125,0.953125
25:39.8,-0.109375,-0.078125,0.953125
25:39.8,-0.111572,-0.078125,0.950684
25:39.8,-0.096191,-0.078125,0.963867
25:39.8,-0.103516,-0.078125,0.971924
25:39.8,-0.110352,-0.078125,0.957764
25:39.8,-0.109375,-0.078125,0.951904
25:39.9,-0.109375,-0.078125,0.953125
25:39.9,-0.109375,-0.078125,0.950684
25:39.9,-0.109375,-0.078125,0.963867
25:39.9,-0.109375,-0.078125,0.971924
25:39.9,-0.109375,-0.078125,0.955322
25:39.9,-0.109375,-0.078125,0.965332
25:39.9,-0.109375,-0.078125,0.958496
25:39.9,-0.109375,-0.078125,0.952148
25:39.9,-0.109375,-0.078125,0.950684
25:39.9,-0.109375,-0.078125,0.964111
25:40.0,-0.109375,-0.078125,0.97168
25:40.0,-0.109375,-0.078125,0.95752
25:40.0,-0.109375,-0.078125,0.949951
25:40.0,-0.111572,-0.078125,0.966553
25:40.0,-0.095703,-0.078125,0.955811
25:40.0,-0.104248,-0.078125,0.963623
25:40.0,-0.110107,-0.078125,0.97168
25:40.0,-0.109375,-0.078125,0.957275
25:40.0,-0.109375,-0.078125,0.952148
25:40.0,-0.109375,-0.078125,0.953125
25:40.1,-0.109375,-0.078125,0.950684
25:40.1,-0.109375,-0.078125,0.966797
25:40.1,-0.109375,-0.078125,0.955566
25:40.1,-0.109375,-0.078125,0.966064
25:40.1,-0.109375,-0.078125,0.957764
25:40.1,-0.109375,-0.078125,0.952148
25:40.1,-0.109375,-0.078125,0.953125
25:40.1,-0.109375,-0.078125,0.950928
25:40.1,-0.109375,-0.078125,0.967041
25:40.1,-0.109375,-0.078125,0.95752
25:40.2,-0.109375,-0.078125,0.952393
25:40.2,-0.111328,-0.078125,0.953125
25:40.2,-0.095215,-0.078125,0.953125
25:40.2,-0.104736,-0.080078,0.953125
25:40.2,-0.109863,-0.063965,0.953125
25:40.2,-0.109375,-0.07373,0.953125
25:40.2,-0.109375,-0.076416,0.950928
25:40.2,-0.107178,-0.092041,0.965088
25:40.2,-0.121338,-0.080078,0.967041
25:40.2,-0.125488,-0.087402,0.980713
25:40.3,-0.125,-0.104248,0.978516
25:40.3,-0.125,-0.12207,1.020752
25:40.3,-0.126953,-0.119141,1.020264
25:40.3,-0.110596,-0.163574,1.098145
25:40.3,-0.114746,-0.150879,1.133789
25:40.3,-0.166504,-0.214844,1.336914
25:40.3,-0.142578,-0.245117,1.519043
25:40.3,-0.197021,-0.2771,1.705566
25:40.3,-0.061279,-0.28418,1.588135
25:40.3,-0.048584,-0.192383,1.271484
25:40.4,-0.071777,-0.067627,1.013428
25:40.4,-0.099365,-0.028809,0.98999
25:40.4,-0.13916,-0.053223,1.026367
25:40.4,-0.120361,0.005127,0.861084
25:40.4,-0.087158,0.086426,0.655762
25:40.4,-0.049805,0.166504,0.512695
25:40.4,-0.056396,0.238281,0.41748
25:40.4,-0.06958,0.268311,0.395996
25:40.4,-0.114502,0.240723,0.456787
25:40.4,-0.142822,0.231445,0.487793
25:40.5,-0.121338,0.245117,0.354004
25:40.5,-0.072021,0.263184,0.314697
25:40.5,-0.04834,0.269775,0.384277
25:40.5,-0.046387,0.241699,0.467041
25:40.5,-0.05249,0.213135,0.450684
25:40.5,-0.013672,0.260498,0.230225
25:40.5,0.039795,0.345459,-0.147949
25:40.5,0.053467,0.392578,-0.450439
25:40.5,0.02417,0.263916,-0.401611
25:40.5,0.192383,1.021973,-1.178223
25:40.6,-2.781738,-7.838379,7.848877
25:40.6,0.229004,0.738281,-1.341309
25:40.6,-0.248535,-0.945557,2.452881
25:40.6,0.052734,-0.158203,1.164551
25:40.6,-0.196045,-0.254639,1.22998
25:40.6,-0.390137,-0.264404,2.051758
25:40.6,-0.112061,-0.491211,2.405762
25:40.6,0.081787,-0.30835,1.46875
25:40.6,0.095215,-0.003418,0.652588
25:40.6,-0.132568,0.04126,0.711426
25:40.7,-0.227783,-0.023682,0.806152
25:40.7,-0.12915,0.100342,0.567871
25:40.7,-0.080566,0.150879,0.52832
25:40.7,-0.082275,0.181885,0.52417
25:40.7,-0.043945,0.196533,0.462891
25:40.7,0.021729,0.243652,0.443359
25:40.7,0.043945,0.24585,0.412354
25:40.7,0.069824,0.289063,0.252686
25:40.7,-0.007813,0.317139,0.228516
25:40.7,-0.118652,0.265869,0.393799
25:40.8,-0.225342,0.177734,0.493896
25:40.8,-0.232422,0.190674,0.375244
25:40.8,-0.129883,0.267578,0.104248
25:40.8,-0.037598,0.323242,-0.182861
25:40.8,-0.036621,0.340088,-0.295166
25:40.8,-0.162842,0.109375,-0.708008
25:40.8,0.455566,1.591553,4.101807
25:40.8,-0.942383,-2.255371,5.735107
25:40.8,0.091064,0.993408,-1.980469
25:40.8,-0.358154,-1.067871,2.69873
25:40.9,0.076416,0.233398,0.361816
25:40.9,-0.175781,-0.225098,1.279541
25:40.9,-0.090088,0.034912,0.791016
25:40.9,-0.118896,-0.09375,0.98999
25:40.9,-0.126465,-0.050781,0.913086
25:40.9,-0.11084,-0.089844,0.977051
25:40.9,-0.109131,-0.079834,0.970703
25:40.9,-0.110352,-0.077881,0.969727
25:40.9,-0.093994,-0.078125,0.954346
25:40.9,-0.108887,-0.078125,0.952881
25:41.0,-0.093994,-0.078125,0.953125
25:41.0,-0.10791,-0.079102,0.953125
25:41.0,-0.109375,-0.0625,0.953125
25:41.0,-0.109375,-0.07666,0.953125
25:41.0,-0.109375,-0.078125,0.951904
25:41.0,-0.109375,-0.078125,0.968506
25:41.0,-0.109375,-0.078125,0.954346
25:41.0,-0.109375,-0.079102,0.952881
25:41.0,-0.109375,-0.0625,0.953125
25:41.0,-0.109375,-0.076904,0.953125
25:41.1,-0.110107,-0.078125,0.952148
25:41.1,-0.09375,-0.078125,0.968506
25:41.1,-0.108154,-0.078125,0.953125
25:41.1,-0.109375,-0.078125,0.967529
25:41.1,-0.109375,-0.078125,0.969482
25:41.1,-0.109375,-0.078125,0.953857
25:41.1,-0.109375,-0.078125,0.952148
25:41.1,-0.108398,-0.078125,0.968506
25:41.1,-0.124756,-0.078125,0.953125
25:41.1,-0.110107,-0.078125,0.967773
25:41.2,-0.109863,-0.078125,0.969238
25:41.2,-0.09375,-0.078125,0.953613
25:41.2,-0.108643,-0.078125,0.952393
25:41.2,-0.109375,-0.078125,0.968506
25:41.2,-0.109375,-0.078125,0.953613
25:41.2,-0.109375,-0.078125,0.952393
25:41.2,-0.109375,-0.078125,0.968018
25:41.2,-0.109375,-0.078125,0.969238
25:41.2,-0.109375,-0.078369,0.953613
25:41.2,-0.109375,-0.0625,0.952881
25:41.3,-0.109375,-0.077881,0.953125
25:41.3,-0.109375,-0.062744,0.953125
25:41.3,-0.109375,-0.062012,0.953125
25:41.3,-0.109375,-0.077637,0.953125
25:41.3,-0.109375,-0.078125,0.953125
25:41.3,-0.109375,-0.078369,0.953125
25:41.3,-0.109375,-0.0625,0.953125
25:41.3,-0.109375,-0.077881,0.953125
25:41.3,-0.109375,-0.078125,0.953125
25:41.3,-0.109375,-0.078125,0.953125
25:41.4,-0.109375,-0.078125,0.952881
25:41.4,-0.109375,-0.077881,0.968506
25:41.4,-0.109131,-0.093506,0.984131
25:41.4,-0.124756,-0.093506,0.999512
25:41.4,-0.140381,-0.140381,1.062256
25:41.4,-0.140625,-0.15625,1.125
25:41.4,-0.15625,-0.171631,1.234863
25:41.4,-0.219238,-0.156494,1.361328
25:41.4,-0.297607,-0.251465,1.723145
25:41.4,-0.357422,-0.407471,2.077881
25:41.5,-0.057373,-0.402588,1.70752
25:41.5,0.142334,-0.057373,0.990967
25:41.5,0.089844,0.015137,0.986572
25:41.5,-0.128906,-0.080078,1.156494
25:41.5,-0.155029,-0.107666,0.990967
25:41.5,-0.059326,0.021973,0.644531
25:41.5,0.001221,0.223633,0.401611
25:41.5,-0.000244,0.250488,0.437744
25:41.5,-0.01709,0.25,0.422607
25:41.5,-0.06543,0.249512,0.471191
25:41.6,-0.127197,0.233887,0.516113
25:41.6,-0.140381,0.235107,0.479004
25:41.6,-0.123779,0.270264,0.335449
25:41.6,-0.11084,0.376953,0.233398
25:41.6,-0.175537,0.324707,0.317383
25:41.6,-0.2229,0.278076,0.379883
25:41.6,-0.283691,0.248535,0.435791
25:41.6,-0.274658,0.252441,0.312012
25:41.6,-0.11084,0.317627,0.020752
25:41.6,0.058838,0.379883,-0.307129
25:41.7,0.14209,0.421631,-0.544189
25:41.7,0.062012,0.330322,-0.532471
25:41.7,-0.105713,0.164795,0.128174
25:41.7,0.498535,2.707275,4.05127
25:41.7,-1.662842,-4.884766,7.517578
25:41.7,0.512939,2.158691,-3.834473
25:41.7,-0.406494,-1.877197,3.851074
25:41.7,0.087891,0.540039,-0.135254
25:41.7,-0.179688,-0.392578,1.5625
25:41.7,-0.075684,0.090576,0.647217
25:41.8,-0.126709,-0.133789,1.061523
25:41.8,-0.108398,-0.076172,0.932861
25:41.8,-0.109375,-0.094727,0.969482
25:41.8,-0.109375,-0.092285,0.951904
25:41.8,-0.109375,-0.078125,0.954102
25:41.8,-0.109375,-0.094482,0.969482
25:41.8,-0.10791,-0.094971,0.971436
25:41.8,-0.09375,-0.109131,0.999512
25:41.8,-0.110352,-0.092529,0.966309
25:41.8,-0.109375,-0.092285,0.96875
25:41.9,-0.109375,-0.076904,0.967285
25:41.9,-0.109375,-0.078125,0.951904
25:41.9,-0.109375,-0.076416,0.953125
25:41.9,-0.109375,-0.062744,0.953125
25:41.9,-0.109375,-0.079346,0.953125
25:41.9,-0.109375,-0.078125,0.953125
25:41.9,-0.109375,-0.078125,0.952881
25:41.9,-0.109375,-0.078125,0.95459
25:41.9,-0.109375,-0.078125,0.969971
25:41.9,-0.109375,-0.078125,0.967041
25:42.0,-0.109375,-0.078125,0.95166
25:42.0,-0.109375,-0.078125,0.953125
25:42.0,-0.109375,-0.078125,0.953125
25:42.0,-0.109375,-0.078125,0.953125
25:42.0,-0.109375,-0.078125,0.953125
25:42.0,-0.109375,-0.078125,0.952881
25:42.0,-0.109375,-0.078125,0.955078
25:42.0,-0.109375,-0.078125,0.968262
25:42.0,-0.109375,-0.078125,0.951416
25:42.0,-0.109375,-0.077881,0.953125
25:42.1,-0.109375,-0.080322,0.952881
25:42.1,-0.109375,-0.093018,0.955078
25:42.1,-0.109375,-0.076416,0.970459
25:42.1,-0.109375,-0.078125,0.966553
25:42.1,-0.109375,-0.078125,0.951416
25:42.1,-0.109375,-0.078125,0.953125
25:42.1,-0.109375,-0.078125,0.953125
25:42.1,-0.109375,-0.078125,0.953125
25:42.1,-0.109375,-0.078125,0.953125
25:42.1,-0.109375,-0.078125,0.952637
25:42.2,-0.109375,-0.078125,0.955322
25:42.2,-0.109375,-0.078125,0.970703
25:42.2,-0.109375,-0.078125,0.966309
25:42.2,-0.109375,-0.078125,0.951172
25:42.2,-0.109375,-0.078125,0.953125
25:42.2,-0.109375,-0.078125,0.952637
25:42.2,-0.109375,-0.078125,0.955566
25:42.2,-0.109375,-0.078125,0.970459
25:42.2,-0.109375,-0.078125,0.96875
25:42.2,-0.109375,-0.078125,0.968994
25:42.3,-0.109375,-0.078125,0.965576
25:42.3,-0.109375,-0.078125,0.954102
25:42.3,-0.109375,-0.078125,0.967773
25:42.3,-0.109375,-0.078125,0.951172
25:42.3,-0.109375,-0.078125,0.953125
25:42.3,-0.109375,-0.078125,0.953125
25:42.3,-0.109375,-0.078125,0.953125
25:42.3,-0.109375,-0.078125,0.953125
25:42.3,-0.109375,-0.078125,0.953125
25:42.3,-0.109375,-0.078125,0.953125
25:42.4,-0.109375,-0.078125,0.953125
25:42.4,-0.109375,-0.078125,0.953125
25:42.4,-0.109375,-0.078125,0.953125
25:42.4,-0.109375,-0.078125,0.953125
25:42.4,-0.109375,-0.078369,0.953125
25:42.4,-0.109375,-0.074951,0.953125
25:42.4,-0.109375,-0.060303,0.953125
25:42.4,-0.109375,-0.0625,0.953125
25:42.4,-0.109863,-0.0625,0.953613
25:42.4,-0.105469,-0.061768,0.949219
25:42.5,-0.094727,-0.065674,0.938477
25:42.5,-0.111328,-0.080078,0.95459
25:42.5,-0.109375,-0.078125,0.956299
25:42.5,-0.109375,-0.077393,0.970215
25:42.5,-0.108643,-0.081299,0.971436
25:42.5,-0.112061,-0.094482,0.988525
25:42.5,-0.130859,-0.099854,1.007568
25:42.5,-0.138672,-0.131836,1.040527
25:42.5,-0.12207,-0.142578,1.068604
25:42.5,-0.166992,-0.178467,1.155273
25:42.6,-0.261475,-0.265381,1.403564
25:42.6,-0.273193,-0.268799,1.632568
25:42.6,-0.314697,-0.302734,1.774658
25:42.6,-0.122559,-0.327637,1.687744
25:42.6,0.053223,-0.177979,1.312988
25:42.6,0.039551,-0.08252,1.093994
25:42.6,-0.044678,-0.062256,1.075928
25:42.6,-0.093262,-0.067871,0.968262
25:42.6,-0.041016,0.004639,0.796875
25:42.6,-0.044434,0.071777,0.708496
25:42.7,-0.019775,0.147461,0.602783
25:42.7,-0.000244,0.216064,0.419434
25:42.7,-0.048828,0.272705,0.398193
25:42.7,-0.113525,0.247559,0.488037
25:42.7,-0.149658,0.246826,0.470215
25:42.7,-0.164795,0.26123,0.342041
25:42.7,-0.198975,0.346191,0.186523
25:42.7,-0.226318,0.418457,0.131348
25:42.7,-0.240479,0.375977,0.191162
25:42.7,-0.256836,0.298584,0.293701
25:42.8,-0.232422,0.237061,0.366211
25:42.8,-0.107666,0.25415,0.222168
25:42.8,0.02124,0.309814,-0.060547
25:42.8,0.025879,0.364502,-0.296631
25:42.8,-0.096436,0.23999,-0.229004
25:42.8,-0.268311,0.414307,-0.251953
25:42.8,-0.536621,-2.504639,3.120361
25:42.8,-0.496582,-5.734131,6.523193
25:42.8,0.26123,2.310303,-1.905762
25:42.8,-0.116943,-0.387451,1.366455
25:42.9,-0.318848,-0.651611,2.40625
25:42.9,-0.332275,0.020264,1.116699
25:42.9,-0.397705,-0.421631,2.305908
25:42.9,-0.153076,-0.595703,2.4375
25:42.9,0.265625,-0.212891,1.171631
25:42.9,0.290527,0.144287,0.354004
25:42.9,-0.020508,0.143555,0.517578
25:42.9,-0.238281,0.047363,0.733398
25:42.9,-0.187744,0.105469,0.504395
25:42.9,-0.086182,0.199707,0.429932
25:43.0,-0.008545,0.227539,0.483154
25:43.0,-0.029297,0.208984,0.594971
25:43.0,-0.100586,0.180664,0.611572
25:43.0,-0.136719,0.191895,0.558594
25:43.0,-0.143799,0.246582,0.445557
25:43.0,-0.130371,0.314209,0.328369
25:43.0,-0.144043,0.315186,0.355225
25:43.0,-0.228271,0.272949,0.483887
25:43.0,-0.270508,0.186768,0.611328
25:43.0,-0.238525,0.18335,0.511719
25:43.1,-0.080322,0.289551,0.233398
25:43.1,0.077148,0.364258,-0.107178
25:43.1,0.174805,0.403809,-0.418701
25:43.1,0.164307,0.404541,-0.518311
25:43.1,0.03833,0.355469,-0.900391
25:43.1,-0.212891,-0.837891,3.127197
25:43.1,-0.330078,-1.640625,6.925537
25:43.1,-0.305908,0.625,-0.715332
25:43.1,-0.341797,0.202637,0.217773
25:43.1,-0.021973,-0.292236,1.688232
25:43.2,-0.073242,0.016602,0.648193
25:43.2,-0.147705,-0.070068,1.010986
25:43.2,-0.12793,-0.087158,0.922607
25:43.2,-0.144043,-0.068604,0.93042
25:43.2,-0.13501,-0.098145,0.956299
25:43.2,-0.122559,-0.09375,0.959717
25:43.2,-0.126221,-0.094971,0.965332
25:43.2,-0.11792,-0.08667,0.950684
25:43.2,-0.11377,-0.081299,0.953125
25:43.2,-0.120361,-0.095947,0.95166
25:43.3,-0.114014,-0.094971,0.959961
25:43.3,-0.120117,-0.087891,0.965332
25:43.3,-0.112793,-0.074463,0.950684
25:43.3,-0.128418,-0.085205,0.95166
25:43.3,-0.119141,-0.090088,0.960205
25:43.3,-0.106934,-0.075684,0.965088
25:43.3,-0.10791,-0.078125,0.950684
25:43.3,-0.115234,-0.078125,0.95166
25:43.3,-0.128662,-0.078125,0.960205
25:43.3,-0.118896,-0.07666,0.963623
25:43.4,-0.106934,-0.085449,0.956787
25:43.4,-0.109375,-0.088379,0.970947
25:43.4,-0.109375,-0.081787,0.969971
25:43.4,-0.10791,-0.095947,0.962646
25:43.4,-0.116699,-0.094971,0.950684
25:43.4,-0.121094,-0.087402,0.953125
25:43.4,-0.105469,-0.075684,0.953125
25:43.4,-0.116943,-0.078125,0.953125
25:43.4,-0.12085,-0.078125,0.953125
25:43.4,-0.105469,-0.078125,0.953125
25:43.5,-0.116943,-0.078125,0.953125
25:43.5,-0.12085,-0.078125,0.953125
25:43.5,-0.105469,-0.078125,0.953125
25:43.5,-0.115723,-0.078125,0.953125
25:43.5,-0.128662,-0.078125,0.953125
25:43.5,-0.116943,-0.076416,0.951416
25:43.5,-0.113525,-0.085938,0.960938
25:43.5,-0.128662,-0.089355,0.964355
25:43.5,-0.118408,-0.075684,0.950684
25:43.5,-0.105469,-0.078125,0.953125
25:43.6,-0.117432,-0.078125,0.953125
25:43.6,-0.120361,-0.078125,0.953125
25:43.6,-0.105469,-0.078125,0.953125
25:43.6,-0.117676,-0.078125,0.951416
25:43.6,-0.118652,-0.078125,0.961426
25:43.6,-0.11377,-0.078125,0.962402
25:43.6,-0.126953,-0.076416,0.955811
25:43.6,-0.123291,-0.083008,0.972656
25:43.6,-0.130127,-0.099365,1.005127
25:43.6,-0.152832,-0.125244,1.044434
25:43.7,-0.14624,-0.144775,1.042236
25:43.7,-0.106934,-0.137207,1.064209
25:43.7,-0.138428,-0.157715,1.14917
25:43.7,-0.16626,-0.153564,1.240479
25:43.7,-0.127686,-0.171387,1.364014
25:43.7,-0.187988,-0.222168,1.53418
25:43.7,-0.17627,-0.255615,1.654785
25:43.7,-0.117432,-0.26123,1.543701
25:43.7,-0.11084,-0.179932,1.25
25:43.7,-0.039307,-0.067627,0.989258
25:43.8,-0.064453,0.02417,0.927002
25:43.8,-0.107178,-0.023438,1.031982
25:43.8,-0.116699,-0.056641,1.031494
25:43.8,-0.094727,0,0.881836
25:43.8,-0.025146,0.129639,0.631348
25:43.8,0.004395,0.216797,0.497803
25:43.8,-0.028564,0.230225,0.493652
25:43.8,-0.062012,0.232666,0.501709
25:43.8,-0.091309,0.249023,0.499756
25:43.8,-0.135742,0.262207,0.468994
25:43.9,-0.162109,0.288086,0.3479
25:43.9,-0.150391,0.371826,0.246094
25:43.9,-0.175049,0.381592,0.299316
25:43.9,-0.224121,0.318604,0.361328
25:43.9,-0.24585,0.271729,0.38208
25:43.9,-0.222656,0.269287,0.30957
25:43.9,-0.09668,0.327637,0.057861
25:43.9,0.036865,0.384521,-0.24292
25:43.9,0.105225,0.404053,-0.42749
25:43.9,0.091797,0.347656,-0.433594
25:44.0,-0.103271,-0.323486,-0.677246
25:44.0,0.374268,2.088623,2.357666
25:44.0,-0.689941,-0.790771,7.97876
25:44.0,-0.695801,-1.385986,1.222412
25:44.0,0.068115,0.281738,-0.590332
25:44.0,-0.149414,-0.898926,2.43335
25:44.0,0.047607,0.2854,0.364014
25:44.0,-0.189697,-0.193604,1.207764
25:44.0,-0.095215,0.023926,0.798096
25:44.0,-0.139893,-0.102783,0.995117
25:44.1,-0.125,-0.073975,0.932617
25:44.1,-0.116699,-0.098389,0.996582
25:44.1,-0.107422,-0.084473,0.967041
25:44.1,-0.109375,-0.085205,0.958496
25:44.1,-0.111328,-0.086426,0.961426
25:44.1,-0.098877,-0.085205,0.960205
25:44.1,-0.100098,-0.086426,0.961426
25:44.1,-0.111084,-0.087158,0.962158
25:44.1,-0.109375,-0.076172,0.951172
25:44.1,-0.109375,-0.078125,0.953125
25:44.2,-0.109375,-0.078125,0.953125
25:44.2,-0.109375,-0.078125,0.953125
25:44.2,-0.109375,-0.078125,0.953125
25:44.2,-0.109375,-0.078125,0.953125
25:44.2,-0.109375,-0.078125,0.953125
25:44.2,-0.109375,-0.078125,0.953125
25:44.2,-0.109375,-0.078125,0.953125
25:44.2,-0.109375,-0.078125,0.953125
25:44.2,-0.109375,-0.078125,0.953125
25:44.2,-0.109375,-0.078125,0.953125
25:44.3,-0.109375,-0.078125,0.953125
25:44.3,-0.109375,-0.078125,0.953125
25:44.3,-0.109375,-0.078125,0.953125
25:44.3,-0.109375,-0.078125,0.953125
25:44.3,-0.109375,-0.078125,0.953125
25:44.3,-0.109375,-0.078125,0.953125
25:44.3,-0.109375,-0.078125,0.950928
25:44.3,-0.109375,-0.078125,0.964111
25:44.3,-0.109375,-0.078125,0.958984
25:44.3,-0.109375,-0.078125,0.962646
25:44.4,-0.109375,-0.078125,0.961182
25:44.4,-0.109375,-0.078125,0.951416
25:44.4,-0.109375,-0.078125,0.953125
25:44.4,-0.109375,-0.078125,0.950684
25:44.4,-0.109375,-0.078125,0.964355
25:44.4,-0.109375,-0.078125,0.960938
25:44.4,-0.109375,-0.078125,0.951416
25:44.4,-0.109375,-0.078125,0.950684
25:44.4,-0.109375,-0.078125,0.9646
25:44.4,-0.109375,-0.078125,0.960938
25:44.5,-0.109375,-0.078125,0.949219
25:44.5,-0.109375,-0.078125,0.9646
25:44.5,-0.109375,-0.078125,0.958496
25:44.5,-0.109375,-0.078125,0.960938
25:44.5,-0.109375,-0.078125,0.970215
25:44.5,-0.109375,-0.078125,0.970947
25:44.5,-0.109375,-0.078125,0.959229
25:44.5,-0.109375,-0.078125,0.95166
25:44.5,-0.109375,-0.078125,0.953125
25:44.5,-0.109375,-0.080322,0.953125
25:44.6,-0.109375,-0.066162,0.953125
25:44.6,-0.109375,-0.070557,0.950684
25:44.6,-0.109375,-0.079346,0.964844
25:44.6,-0.109375,-0.078125,0.960205
25:44.6,-0.109375,-0.078125,0.949219
25:44.6,-0.109375,-0.078125,0.965088
25:44.6,-0.111572,-0.078125,0.960205
25:44.6,-0.097168,-0.078125,0.95166
25:44.6,-0.102051,-0.078125,0.950684
25:44.6,-0.110596,-0.078125,0.965088
25:44.7,-0.109375,-0.078125,0.959961
25:44.7,-0.109375,-0.078125,0.95166
25:44.7,-0.109375,-0.078125,0.953125
25:44.7,-0.109375,-0.078125,0.953125
25:44.7,-0.109375,-0.080322,0.953125
25:44.7,-0.109375,-0.065674,0.953125
25:44.7,-0.109375,-0.073486,0.953125
25:44.7,-0.106934,-0.066895,0.950684
25:44.7,-0.119385,-0.069092,0.960938
25:44.7,-0.126221,-0.087158,0.973145
25:44.8,-0.122559,-0.100342,1.009277
25:44.8,-0.137451,-0.128662,1.058594
25:44.8,-0.12915,-0.157715,1.114746
25:44.8,-0.138672,-0.141357,1.108887
25:44.8,-0.118652,-0.085693,1.10083
25:44.8,-0.105713,-0.156982,1.391846
25:44.8,-0.175781,-0.237793,1.532471
25:44.8,-0.237793,-0.285645,1.545654
25:44.8,-0.13623,-0.245117,1.474121
25:44.8,-0.079834,-0.129883,1.283936
25:44.9,-0.112305,-0.130371,1.227539
25:44.9,-0.142334,-0.120361,1.173828
25:44.9,-0.129639,-0.05957,0.996338
25:44.9,-0.069336,0.012207,0.752686
25:44.9,-0.018799,0.111328,0.634277
25:44.9,-0.023926,0.161377,0.61084
25:44.9,-0.025146,0.206055,0.535645
25:44.9,-0.058594,0.22168,0.516357
25:44.9,-0.098145,0.21875,0.555908
25:44.9,-0.132813,0.214111,0.562988
25:45.0,-0.147217,0.235596,0.518555
25:45.0,-0.121094,0.266602,0.411133
25:45.0,-0.091797,0.320313,0.328369
25:45.0,-0.114502,0.313721,0.348633
25:45.0,-0.124512,0.277588,0.414551
25:45.0,-0.14502,0.243896,0.485596
25:45.0,-0.106689,0.218994,0.459717
25:45.0,-0.043945,0.214844,0.305664
25:45.0,0.054443,0.294678,0.069336
25:45.0,0.092773,0.364502,-0.21167
25:45.1,0.047363,0.425293,-0.47168
25:45.1,-0.098145,-0.041992,-0.549805
25:45.1,0.456299,2.48584,0.608398
25:45.1,-1.740723,-4.533691,7.999756
25:45.1,-0.214844,-0.383301,-0.489258
25:45.1,-0.224365,-0.588379,1.600342
25:45.1,-0.043213,-0.425781,1.475342
25:45.1,-0.078857,-0.145508,1.077637
25:45.1,-0.140869,-0.251221,1.261719
25:45.1,-0.138672,-0.275146,1.518311
25:45.2,-0.410645,-0.264648,1.963379
25:45.2,-0.307617,-0.390625,1.968994
25:45.2,-0.117676,-0.302979,1.417725
25:45.2,-0.073486,-0.160645,1.064941
25:45.2,-0.095459,-0.04541,0.835205
25:45.2,-0.066406,0.015625,0.660889
25:45.2,-0.01416,0.068604,0.568848
25:45.2,0.029785,0.145996,0.507568
25:45.2,0.011475,0.219971,0.423096
25:45.2,-0.006348,0.253418,0.402344
25:45.3,-0.055664,0.216309,0.432617
25:45.3,-0.038818,0.269287,0.27417
25:45.3,-0.034912,0.337891,0.145508
25:45.3,-0.069824,0.347168,0.228027
25:45.3,-0.160156,0.260742,0.399658
25:45.3,-0.23999,0.195557,0.431396
25:45.3,-0.180176,0.248047,0.204346
25:45.3,-0.061768,0.351563,-0.135986
25:45.3,0.023193,0.424316,-0.446777
25:45.3,0.036865,0.306885,-0.396484
25:45.4,0.063232,1.154785,-1.289307
25:45.4,-1.106201,-6.88501,7.456055
25:45.4,0.562988,-0.184082,0.187988
25:45.4,-0.194092,-0.229248,1.429932
25:45.4,0.120361,0.023438,0.921875
25:45.4,-0.038574,-0.157471,1.094238
25:45.4,-0.119873,-0.034668,0.854248
25:45.4,-0.113525,-0.080322,0.945557
25:45.4,-0.140381,-0.092285,0.946045
25:45.4,-0.128906,-0.086426,0.955078
25:45.5,-0.126465,-0.108643,0.970215
25:45.5,-0.112549,-0.097412,0.96875
25:45.5,-0.11084,-0.093018,0.96875
25:45.5,-0.094727,-0.09375,0.970703
25:45.5,-0.107666,-0.09375,0.956299
25:45.5,-0.095215,-0.09375,0.952393
25:45.5,-0.103516,-0.09375,0.953125
25:45.5,-0.124268,-0.095703,0.953125
25:45.5,-0.112793,-0.079102,0.950928
25:45.5,-0.108887,-0.090088,0.967529
25:45.6,-0.109375,-0.095947,0.956543
25:45.6,-0.109375,-0.081055,0.952637
25:45.6,-0.109375,-0.077637,0.953125
25:45.6,-0.109375,-0.076172,0.953125
25:45.6,-0.109375,-0.092773,0.953125
25:45.6,-0.109375,-0.081299,0.953125
25:45.6,-0.109375,-0.075684,0.953125
25:45.6,-0.109375,-0.09082,0.953125
25:45.6,-0.109375,-0.093994,0.951172
25:45.6,-0.109375,-0.09375,0.967773
25:45.7,-0.109375,-0.095459,0.956055
25:45.7,-0.109375,-0.080566,0.952637
25:45.7,-0.109375,-0.077637,0.953125
25:45.7,-0.109375,-0.076172,0.953125
25:45.7,-0.109375,-0.092773,0.953125
25:45.7,-0.109375,-0.080811,0.951172
25:45.7,-0.109375,-0.077637,0.966064
25:45.7,-0.109375,-0.078125,0.970703
25:45.7,-0.109375,-0.078125,0.955566
25:45.7,-0.109375,-0.078125,0.952637
25:45.8,-0.109375,-0.078125,0.953125
25:45.8,-0.109375,-0.078125,0.953125
25:45.8,-0.109375,-0.078125,0.953125
25:45.8,-0.109375,-0.078125,0.953125
25:45.8,-0.109375,-0.078125,0.953125
25:45.8,-0.109375,-0.078125,0.951416
25:45.8,-0.109375,-0.078125,0.968018
25:45.8,-0.109375,-0.078125,0.955566
25:45.8,-0.109375,-0.078125,0.952637
25:45.8,-0.109375,-0.078125,0.953125
25:45.9,-0.109375,-0.078125,0.953125
25:45.9,-0.109375,-0.078125,0.953125
25:45.9,-0.109375,-0.078125,0.953125
25:45.9,-0.109375,-0.078125,0.953125
25:45.9,-0.109375,-0.078125,0.953125
25:45.9,-0.109375,-0.078125,0.953125
25:45.9,-0.109375,-0.078125,0.951416
25:45.9,-0.109375,-0.07666,0.966797
25:45.9,-0.10791,-0.091797,0.966064
25:45.9,-0.121582,-0.092285,0.994873
25:46.0,-0.138916,-0.103271,1.00708
25:46.0,-0.137939,-0.151123,1.07959
25:46.0,-0.165527,-0.151123,1.137695
25:46.0,-0.19458,-0.2146,1.278076
25:46.0,-0.24585,-0.189941,1.328125
25:46.0,-0.427002,-0.189209,1.442627
25:46.0,-0.21167,-0.335938,1.805908
25:46.0,-0.032715,-0.283447,1.555664
25:46.0,0.026611,-0.172363,1.273926
25:46.0,0.051758,-0.088379,1.047363
25:46.1,-0.02124,-0.03125,1.050781
25:46.1,-0.064941,-0.082764,0.989258
25:46.1,-0.010498,0.022217,0.646484
25:46.1,0.05835,0.198486,0.339355
25:46.1,0.052979,0.290039,0.25
25:46.1,-0.002686,0.312744,0.293457
25:46.1,-0.111816,0.300293,0.288086
25:46.1,-0.184082,0.264648,0.21875
25:46.1,-0.174316,0.30542,0.068848
25:46.1,-0.154297,0.358887,0.110107
25:46.2,-0.19751,0.324219,0.246338
25:46.2,-0.23999,0.195313,0.40918
25:46.2,-0.128662,0.19751,0.237061
25:46.2,0.044678,0.262207,-0.079346
25:46.2,0.168701,0.255615,-0.262695
25:46.2,0.075684,0.10083,-0.246094
25:46.2,0.911865,1.838135,0.837646
25:46.2,-2.310303,-5.84082,7.999756
25:46.2,0.205566,1.661133,-2.609131
25:46.2,-0.526123,-1.606934,3.270264
25:46.3,0.165283,0.269287,0.29248
25:46.3,-0.220459,-0.331299,1.432617
25:46.3,-0.022705,-0.043213,0.925781
25:46.3,-0.116943,-0.164795,1.173828
25:46.3,-0.171143,-0.161133,1.15625
25:46.3,-0.142578,-0.060791,1.193115
25:46.3,-0.125,-0.200439,1.38623
25:46.3,-0.141113,-0.110352,1.299805
25:46.3,-0.112793,-0.1875,1.337891
25:46.3,-0.047852,-0.102051,1.035645
25:46.4,-0.075195,0.041016,0.776367
25:46.4,-0.123291,0.07666,0.69165
25:46.4,-0.125,0.093262,0.625488
25:46.4,-0.124023,0.094482,0.668701
25:46.4,-0.154785,0.063232,0.732178
25:46.4,-0.170898,0.061523,0.75
25:46.4,-0.186279,0.093018,0.734619
25:46.4,-0.217773,0.09375,0.734131
25:46.4,-0.233887,0.094238,0.732422
25:46.4,-0.234863,0.063232,0.825684
25:46.5,-0.203369,0.047119,0.872314
25:46.5,-0.202881,0.032227,0.996582
25:46.5,-0.203125,-0.030273,1.123047
25:46.5,-0.187744,-0.046875,1.15625
25:46.5,-0.156494,-0.03125,1.109863
25:46.5,-0.140625,-0.015625,1.078369
25:46.5,-0.109375,0,1.031494
25:46.5,-0.109131,0.015381,0.984375
25:46.5,-0.140625,0.046875,0.984375
25:46.5,-0.15625,0.031006,1
25:46.6,-0.171875,0.031006,1.015869
25:46.6,-0.187256,0,1.078125
25:46.6,-0.171875,0.015625,1.047363
25:46.6,-0.1875,0.014893,1.142578
25:46.6,-0.186768,-0.047119,1.233887
25:46.6,-0.13916,-0.013916,1.105713
25:46.6,-0.092529,0.064209,0.981201
25:46.6,-0.078125,0.094482,0.920166
25:46.6,-0.093994,0.109619,0.889893
25:46.6,-0.093994,0.109131,0.889893
25:46.7,-0.109131,0.110352,0.855957
25:46.7,-0.093262,0.158203,0.744629
25:46.7,-0.09375,0.188965,0.651611
25:46.7,-0.092773,0.220459,0.571045
25:46.7,-0.060303,0.252441,0.414795
25:46.7,-0.03125,0.297852,0.359863
25:46.7,-0.065186,0.279053,0.442383
25:46.7,-0.112793,0.231445,0.502441
25:46.7,-0.155518,0.20166,0.493408
25:46.7,-0.088135,0.206299,0.311768
25:46.8,-0.008057,0.287109,0.074219
25:46.8,0.079834,0.3479,-0.161133
25:46.8,0.026367,0.374512,-0.387939
25:46.8,-0.040771,0.308838,-0.423828
25:46.8,-0.113525,0.178223,0.144287
25:46.8,0.318604,1.769043,5.712158
25:46.8,-1.324707,-3.134033,5.452148
25:46.8,0.283936,1.706055,-2.722168
25:46.8,-0.287109,-1.475098,3.042236
25:46.8,0.06958,0.193848,0.479736
25:46.9,-0.134521,-0.119629,1.052979
25:46.9,-0.107178,-0.057373,0.958252
25:46.9,-0.095947,-0.033691,0.876953
25:46.9,-0.143555,-0.095215,0.986328
25:46.9,-0.138428,-0.061523,0.921143
25:46.9,-0.105957,-0.079102,0.97168
25:46.9,-0.09375,-0.078125,0.96875
25:46.9,-0.110352,-0.078125,0.96875
25:46.9,-0.109375,-0.078125,0.96875
25:46.9,-0.10791,-0.078125,0.96875
25:47.0,-0.09375,-0.078125,0.96875
25:47.0,-0.110352,-0.078125,0.967285
25:47.0,-0.109375,-0.078125,0.950439
25:47.0,-0.109375,-0.078125,0.9375
25:47.0,-0.109375,-0.078125,0.954102
25:47.0,-0.109131,-0.078125,0.953125
25:47.0,-0.11084,-0.078125,0.952881
25:47.0,-0.124512,-0.078125,0.95459
25:47.0,-0.10791,-0.078125,0.969971
25:47.0,-0.109131,-0.077881,0.968506
25:47.1,-0.11084,-0.07959,0.970215
25:47.1,-0.126465,-0.095215,0.98584
25:47.1,-0.123291,-0.092041,0.982422
25:47.1,-0.106201,-0.07666,0.96875
25:47.1,-0.092041,-0.078125,0.987793
25:47.1,-0.095215,-0.078125,0.99707
25:47.1,-0.112061,-0.077637,0.969971
25:47.1,-0.129639,-0.081055,1.03125
25:47.1,-0.161377,-0.117432,1.147949
25:47.1,-0.203369,-0.163574,1.279785
25:47.2,-0.313965,-0.196777,1.464844
25:47.2,-0.304688,-0.270264,1.673828
25:47.2,-0.07666,-0.330566,1.637207
25:47.2,0.000244,-0.121826,1.160889
25:47.2,0.029541,-0.014893,0.960449
25:47.2,-0.02002,0.007568,0.857178
25:47.2,-0.016846,0.032227,0.848633
25:47.2,-0.039551,0.013428,0.916504
25:47.2,-0.080322,0.018555,0.910156
25:47.2,-0.062988,0.060303,0.78418
25:47.3,-0.07959,0.139648,0.666016
25:47.3,-0.078369,0.178467,0.612305
25:47.3,-0.075928,0.193604,0.56543
25:47.3,-0.058594,0.222412,0.530518
25:47.3,-0.042236,0.21582,0.569824
25:47.3,-0.031494,0.203125,0.568848
25:47.3,-0.050049,0.225342,0.480957
25:47.3,-0.070801,0.253662,0.432617
25:47.3,-0.118896,0.248047,0.457275
25:47.3,-0.150146,0.227051,0.473145
25:47.4,-0.169678,0.200684,0.453369
25:47.4,-0.104492,0.229492,0.295654
25:47.4,-0.014893,0.299316,0.046143
25:47.4,0.005371,0.350586,-0.182373
25:47.4,-0.007568,0.311035,-0.278809
25:47.4,-0.125977,0.335938,-0.300049
25:47.4,-0.361328,-0.791504,1.61499
25:47.4,-0.395752,-4.350098,7.680176
25:47.4,-0.141357,0.8396,-0.622314
25:47.4,0.07373,0.127197,-0.44043
25:47.5,-0.243652,-0.837402,2.595215
25:47.5,0.049316,0.351318,0.102539
25:47.5,-0.207764,-0.259277,1.369385
25:47.5,-0.056152,0.052246,0.729248
25:47.5,-0.13623,-0.115479,1.029297
25:47.5,-0.139893,-0.048584,0.919434
25:47.5,-0.119873,-0.095947,0.970459
25:47.5,-0.107178,-0.079102,0.957275
25:47.5,-0.108643,-0.095215,0.987305
25:47.5,-0.112305,-0.09668,0.991211
25:47.6,-0.12793,-0.111816,1.016846
25:47.6,-0.11792,-0.105957,0.994141
25:47.6,-0.092285,-0.092041,0.985352
25:47.6,-0.114502,-0.089844,1.002441
25:47.6,-0.127441,-0.080322,0.99707
25:47.6,-0.12085,-0.088379,0.977783
25:47.6,-0.111084,-0.061523,0.972168
25:47.6,-0.122314,-0.078857,1.008545
25:47.6,-0.111084,-0.084229,1.045654
25:47.6,-0.162598,-0.114014,1.116943
25:47.7,-0.22876,-0.145264,1.236328
25:47.7,-0.184326,-0.211914,1.363281
25:47.7,-0.108398,-0.177734,1.283447
25:47.7,-0.083496,-0.119385,1.11377
25:47.7,-0.050293,-0.03418,0.933105
25:47.7,-0.029785,0.030518,0.860596
25:47.7,-0.05127,0.028809,0.870605
25:47.7,-0.070557,0.017822,0.858887
25:47.7,-0.104004,0.029541,0.886963
25:47.7,-0.137451,0.013428,0.935791
25:47.8,-0.157471,0.014893,0.956055
25:47.8,-0.135986,0.019287,0.960693
25:47.8,-0.116455,0.032715,0.98999
25:47.8,-0.082764,0.035156,0.976318
25:47.8,-0.050781,0.048096,0.948486
25:47.8,-0.02124,0.050049,0.950684
25:47.8,-0.019775,0.071777,0.961914
25:47.8,-0.060059,0.0625,1.027344
25:47.8,-0.079102,0.012451,1.052246
25:47.8,-0.055176,0.062012,0.926514
25:47.9,-0.047119,0.108643,0.843506
25:47.9,-0.07373,0.127686,0.86499
25:47.9,-0.093018,0.130859,0.833984
25:47.9,-0.080078,0.172607,0.7146
25:47.9,-0.094971,0.213135,0.656982
25:47.9,-0.0979,0.222656,0.616943
25:47.9,-0.108154,0.248535,0.498535
25:47.9,-0.125,0.293945,0.403564
25:47.9,-0.19043,0.291016,0.422607
25:47.9,-0.204834,0.256592,0.421875
25:48.0,-0.180664,0.244873,0.393311
25:48.0,-0.131104,0.262451,0.270264
25:48.0,-0.058594,0.304443,0.046631
25:48.0,-0.035645,0.337646,-0.1521
25:48.0,-0.03125,0.370605,-0.313965
25:48.0,-0.114502,0.215332,-0.369141
25:48.0,-0.03125,0.728516,-0.240723
25:48.0,-0.393799,-2.396484,3.826416
25:48.0,-0.883301,-5.613525,5.848389
25:48.0,0.680176,2.852783,-2.566895
25:48.1,0.018311,-0.624023,1.817871
25:48.1,-0.049805,-0.330322,1.495361
25:48.1,-0.101807,0.163818,0.440674
25:48.1,-0.158203,-0.210449,1.293701
25:48.1,-0.05542,0.050537,0.731201
25:48.1,-0.155518,-0.111816,1.026611
25:48.1,-0.137695,-0.053467,0.901611
25:48.1,-0.111572,-0.093506,0.986084
25:48.1,-0.093994,-0.086914,0.958496
25:48.1,-0.111572,-0.108887,0.98877
25:48.2,-0.110352,-0.091309,0.984375
25:48.2,-0.103027,-0.094727,0.983154
25:48.2,-0.095215,-0.087402,0.989502
25:48.2,-0.116699,-0.083252,1.004395
25:48.2,-0.127197,-0.085449,0.988281
25:48.2,-0.123779,-0.05542,0.96582
25:48.2,-0.130127,-0.071777,0.996582
25:48.2,-0.135742,-0.103516,1.057373
25:48.2,-0.170166,-0.106689,1.146729
25:48.2,-0.268555,-0.128174,1.236328
25:48.3,-0.238037,-0.194092,1.329834
25:48.3,-0.073242,-0.20166,1.378174
25:48.3,0.020752,-0.14917,1.261475
25:48.3,0.001221,-0.083496,1.121826
25:48.3,-0.00293,-0.059326,1.047607
25:48.3,-0.025146,-0.043213,1.019043
25:48.3,-0.070557,-0.018555,1.059814
25:48.3,-0.089355,-0.063477,1.085205
25:48.3,-0.055176,-0.039063,0.958984
25:48.3,-0.07373,0.035645,0.877441
25:48.4,-0.098145,0.058838,0.871582
25:48.4,-0.092285,0.101074,0.792236
25:48.4,-0.098145,0.130127,0.806396
25:48.4,-0.115967,0.09082,0.939941
25:48.4,-0.138428,0.045654,1.013428
25:48.4,-0.12207,0.056641,0.966797
25:48.4,-0.055664,0.124023,0.845459
25:48.4,-0.046631,0.166748,0.843994
25:48.4,-0.073486,0.147461,0.9021
25:48.4,-0.068359,0.147461,0.835449
25:48.5,-0.037842,0.189697,0.767822
25:48.5,-0.060547,0.202881,0.821777
25:48.5,-0.117188,0.17749,0.881592
25:48.5,-0.15332,0.171143,0.852539
25:48.5,-0.158447,0.206543,0.760986
25:48.5,-0.153076,0.245605,0.725098
25:48.5,-0.165527,0.258301,0.73877
25:48.5,-0.199951,0.267822,0.714111
25:48.5,-0.241943,0.26709,0.683838
25:48.5,-0.273682,0.260742,0.717773
25:48.6,-0.263672,0.238281,0.744873
25:48.6,-0.231689,0.241699,0.713379
25:48.6,-0.181885,0.28418,0.645264
25:48.6,-0.172119,0.296387,0.61499
25:48.6,-0.196045,0.273926,0.609863
25:48.6,-0.211426,0.247314,0.540283
25:48.6,-0.18335,0.278809,0.307373
25:48.6,-0.108643,0.383301,-0.054932
25:48.6,-0.05127,0.454346,-0.453613
25:48.6,-0.049316,0.537109,-0.760742
25:48.7,-0.149902,0.460938,-0.74292
25:48.7,-0.256104,0.204834,-0.532959
25:48.7,-0.216064,0.719482,-1.026367
25:48.7,-0.341064,-4.730225,4.558105
25:48.7,0.266602,-4.307373,4.655518
25:48.7,0.512939,2.906494,-2.951172
25:48.7,-0.34668,-0.84375,1.115479
25:48.7,-0.132324,-0.55542,1.855225
25:48.7,-0.088623,0.127197,0.611816
25:48.7,-0.102051,-0.081055,1.026367
25:48.8,-0.109619,-0.060791,0.871338
25:48.8,-0.154541,-0.105957,1.01123
25:48.8,-0.113525,-0.070313,0.955566
25:48.8,-0.108887,-0.09375,0.958008
25:48.8,-0.102295,-0.108154,0.970703
25:48.8,-0.091553,-0.082764,0.96875
25:48.8,-0.095459,-0.083008,0.96875
25:48.8,-0.084717,-0.097412,0.970459
25:48.8,-0.081299,-0.086426,0.961426
25:48.8,-0.103027,-0.075928,0.950928
25:48.9,-0.111328,-0.078125,0.953125
25:48.9,-0.109375,-0.078125,0.951172
25:48.9,-0.109375,-0.076172,0.960205
25:48.9,-0.111084,-0.087158,0.972412
25:48.9,-0.100098,-0.088379,0.961182
25:48.9,-0.098877,-0.075928,0.950928
25:48.9,-0.111328,-0.078125,0.953125
25:48.9,-0.109375,-0.078125,0.953125
25:48.9,-0.109375,-0.078125,0.953125
25:48.9,-0.109375,-0.078125,0.953125
25:49.0,-0.109375,-0.078125,0.951172
25:49.0,-0.109375,-0.076172,0.960693
25:49.0,-0.109375,-0.085693,0.970703
25:49.0,-0.107422,-0.095703,0.966797
25:49.0,-0.116943,-0.091797,0.972412
25:49.0,-0.125,-0.097412,0.99585
25:49.0,-0.130615,-0.122803,1.031006
25:49.0,-0.148193,-0.154053,1.103271
25:49.0,-0.163818,-0.202881,1.20874
25:49.0,-0.171631,-0.20874,1.259521
25:49.1,-0.226807,-0.165771,1.363525
25:49.1,-0.314697,-0.258545,1.720459
25:49.1,-0.169922,-0.376953,1.82666
25:49.1,0.054932,-0.216553,1.280273
25:49.1,0.109375,0.01416,0.795898
25:49.1,0.017822,0.080078,0.786621
25:49.1,-0.131836,0.021973,0.921143
25:49.1,-0.159424,-0.026855,0.908447
25:49.1,-0.088623,0.03833,0.795898
25:49.1,-0.054932,0.095459,0.75415
25:49.2,-0.060303,0.145752,0.67334
25:49.2,-0.066406,0.177002,0.609863
25:49.2,-0.094238,0.182129,0.626953
25:49.2,-0.123291,0.180908,0.667236
25:49.2,-0.118408,0.167969,0.694824
25:49.2,-0.109619,0.177979,0.693604
25:49.2,-0.103027,0.189209,0.630127
25:49.2,-0.075195,0.236328,0.478516
25:49.2,-0.10376,0.281006,0.390869
25:49.2,-0.173096,0.289307,0.36792
25:49.3,-0.197021,0.257813,0.421875
25:49.3,-0.183105,0.216309,0.463623
25:49.3,-0.107666,0.221191,0.336426
25:49.3,-0.02832,0.296387,0.023438
25:49.3,-0.001709,0.401367,-0.307861
25:49.3,0.012207,0.384766,-0.415771
25:49.3,-0.266113,-0.099365,-1.049072
25:49.3,1.220459,2.084229,2.700195
25:49.3,-0.078369,-0.858154,6.855957
25:49.3,-0.976563,-0.799805,0.353516
25:49.4,-0.196045,0.074707,0.238525
25:49.4,-0.180176,-0.667725,1.954834
25:49.4,-0.109375,0.061035,0.666504
25:49.4,-0.141357,-0.158936,1.119629
25:49.4,-0.100586,-0.088135,0.95459
25:49.4,-0.146973,-0.102295,1.012695
25:49.4,-0.144775,-0.079834,0.966309
25:49.4,-0.118164,-0.102051,1.00708
25:49.4,-0.121826,-0.117676,1.033203
25:49.4,-0.157227,-0.133301,1.101563
25:49.5,-0.132813,-0.15332,1.196289
25:49.5,-0.162354,-0.144043,1.217285
25:49.5,-0.134766,-0.168457,1.221436
25:49.5,-0.01123,-0.139893,1.144775
25:49.5,0.026611,-0.044189,0.962646
25:49.5,-0.038818,0.008301,0.806641
25:49.5,-0.116211,0.027832,0.777588
25:49.5,-0.172363,0.034912,0.798584
25:49.5,-0.201172,0.026367,0.835693
25:49.5,-0.208984,0,0.942139
25:49.6,-0.190918,-0.044189,1.020264
25:49.6,-0.140381,-0.02124,0.985596
25:49.6,-0.120361,0.004395,0.980957
25:49.6,-0.127197,0,1.014648
25:49.6,-0.119873,-0.002197,1.011963
25:49.6,-0.088623,0.004883,0.981689
25:49.6,-0.072998,0.03833,0.953857
25:49.6,-0.087646,0.040039,0.956787
25:49.6,-0.092773,0.031982,0.980225
25:49.6,-0.103271,0.021484,1.036865
25:49.7,-0.115234,0.01416,1.096436
25:49.7,-0.092041,0.008545,1.066406
25:49.7,-0.06543,0.044922,0.981934
25:49.7,-0.056396,0.066406,0.978271
25:49.7,-0.082031,0.060059,1.026855
25:49.7,-0.096191,0.074463,1.011719
25:49.7,-0.091309,0.064697,1.01416
25:49.7,-0.101318,0.078613,0.991699
25:49.7,-0.118164,0.106201,0.949463
25:49.7,-0.140869,0.103516,0.924072
25:49.8,-0.121826,0.134766,0.870361
25:49.8,-0.109131,0.177734,0.819824
25:49.8,-0.096924,0.195313,0.749512
25:49.8,-0.100098,0.222168,0.691162
25:49.8,-0.120605,0.242188,0.641357
25:49.8,-0.126221,0.266846,0.561768
25:49.8,-0.120361,0.299316,0.428711
25:49.8,-0.140869,0.339844,0.363525
25:49.8,-0.174561,0.33252,0.399902
25:49.8,-0.217285,0.28125,0.459961
