Time,Accel-X (g), Accel-Y (g), Accel-Z (g)
25:17.7,-0.064453,0.561279,-0.703125
25:17.7,-0.000732,0.593262,-0.733643
25:17.7,0.079102,0.609619,-0.797607
25:17.8,0.142822,0.641113,-0.86084
25:17.8,0.189453,0.639893,-0.875488
25:17.8,0.204346,0.622803,-0.873535
25:17.8,0.218506,0.590088,-0.838379
25:17.8,0.200684,0.55835,-0.77417
25:17.8,0.188965,0.526123,-0.72583
25:17.8,0.222412,0.497314,-0.662109
25:17.8,0.23877,0.5,-0.618652
25:17.8,0.272217,0.499756,-0.611572
25:17.8,0.301514,0.501709,-0.644287
25:17.9,0.318604,0.519287,-0.635986
25:17.9,0.349365,0.535156,-0.602295
25:17.9,0.364014,0.550537,-0.597656
25:17.9,0.376465,0.569824,-0.625732
25:17.9,0.37915,0.60083,-0.607666
25:17.9,0.385742,0.61084,-0.606445
25:17.9,0.35498,0.612305,-0.587891
25:17.9,0.359375,0.630859,-0.575195
25:17.9,0.360107,0.642822,-0.581299
25:17.9,0.354248,0.640625,-0.60083
25:18.0,0.345703,0.640625,-0.606201
25:18.0,0.361572,0.638672,-0.593018
25:18.0,0.358154,0.64917,-0.627197
25:18.0,0.365479,0.68042,-0.657959
25:18.0,0.373047,0.695068,-0.639404
25:18.0,0.351563,0.704102,-0.63501
25:18.0,0.341309,0.70874,-0.625244
25:18.0,0.34375,0.720947,-0.614502
25:18.0,0.34375,0.707031,-0.581543
25:18.0,0.34375,0.787109,-0.591064
25:18.1,0.340576,0.778564,-0.553711
25:18.1,0.355469,0.648438,-0.500244
25:18.1,0.384277,0.7146,-0.5354
25:18.1,0.397949,0.729736,-0.534668
25:18.1,0.417236,0.729004,-0.516602
25:18.1,0.414307,0.716553,-0.497803
25:18.1,0.413818,0.720459,-0.498047
25:18.1,0.415771,0.712646,-0.462402
25:18.1,0.40625,0.695068,-0.41748
25:18.1,0.395752,0.677246,-0.39209
25:18.2,0.393066,0.665771,-0.393066
25:18.2,0.423096,0.687012,-0.42749
25:18.2,0.44751,0.710938,-0.433838
25:18.2,0.463623,0.738525,-0.415527
25:18.2,0.472412,0.755127,-0.388184
25:18.2,0.461426,0.740234,-0.366943
25:18.2,0.446533,0.737549,-0.340576
25:18.2,0.418457,0.71875,-0.31543
25:18.2,0.391113,0.680176,-0.315674
25:18.2,0.397461,0.669434,-0.293945
25:18.3,0.41333,0.671875,-0.263672
25:18.3,0.444336,0.674072,-0.290771
25:18.3,0.457275,0.665283,-0.285889
25:18.3,0.448486,0.639648,-0.232422
25:18.3,0.406738,0.588867,-0.137939
25:18.3,0.371582,0.573486,-0.072021
25:18.3,0.328857,0.581055,-0.046387
25:18.3,0.274414,0.629639,-0.04126
25:18.3,0.261719,0.717529,-0.140381
25:18.3,0.271973,0.824219,-0.298096
25:18.4,0.323486,0.946289,-0.458252
25:18.4,0.299805,1.092041,-0.506104
25:18.4,0.325684,1.201172,-0.577393
25:18.4,0.30542,1.258545,-0.514404
25:18.4,0.266113,1.276611,-0.477295
25:18.4,0.289551,1.302734,-0.546631
25:18.4,0.323486,1.371094,-0.616211
25:18.4,0.344727,1.349609,-0.656006
25:18.4,0.31958,1.321289,-0.63208
25:18.4,0.260742,1.230713,-0.573242
25:18.5,0.150635,1.132324,-0.459961
25:18.5,0.068115,1.083008,-0.438477
25:18.5,0.002197,1.002686,-0.423584
25:18.5,-0.013916,0.985352,-0.376465
25:18.5,-0.093262,0.937988,-0.328125
25:18.5,-0.109619,0.858398,-0.328369
25:18.5,-0.124756,0.842529,-0.36084
25:18.5,-0.109863,0.810791,-0.408447
25:18.5,-0.141846,0.792725,-0.417236
25:18.5,-0.139648,0.741943,-0.307129
25:18.6,-0.120361,0.906494,-0.297852
25:18.6,-0.076172,0.756104,-0.08252
25:18.6,-0.089844,0.787598,0.013672
25:18.6,-0.048096,0.862061,-0.129395
25:18.6,-0.09668,0.960449,-0.157471
25:18.6,-0.072754,0.907959,-0.001465
25:18.6,-0.037109,0.86792,-0.068115
25:18.6,0.012695,0.992432,-0.200684
25:18.6,0.054443,1.033936,-0.212891
25:18.6,0.068604,0.985596,-0.023438
25:18.7,0.107422,0.991455,0.008545
25:18.7,0.18457,1.141846,-0.065918
25:18.7,0.265137,1.179688,-0.026855
25:18.7,0.274658,1.179932,-0.033203
25:18.7,0.302979,1.166016,-0.02124
25:18.7,0.325684,1.074951,0.037598
25:18.7,0.375977,1.08374,0.054932
25:18.7,0.388428,1.082275,0.01416
25:18.7,0.381348,1.001709,0.024414
25:18.7,0.414795,0.92334,0.035645
25:18.8,0.43042,0.874268,0.074463
25:18.8,0.435547,0.842041,0.054443
25:18.8,0.415039,0.789795,0.070313
25:18.8,0.399414,0.75415,0.083984
25:18.8,0.38208,0.74292,0.17334
25:18.8,0.372559,0.722656,0.229004
25:18.8,0.376465,0.729492,0.219238
25:18.8,0.371582,0.75415,0.180908
25:18.8,0.343262,0.75,0.188965
25:18.8,0.32373,0.746338,0.176758
25:18.9,0.326172,0.762695,0.187988
25:18.9,0.331787,0.788818,0.192139
25:18.9,0.361084,0.812256,0.169678
25:18.9,0.374756,0.831787,0.161865
25:18.9,0.383057,0.869873,0.166504
25:18.9,0.438965,0.942627,0.163086
25:18.9,0.490723,0.990723,0.117676
25:18.9,0.516357,1.009766,0.06665
25:18.9,0.501465,1.021729,0.019531
25:18.9,0.467529,1.046631,0.017334
25:19.0,0.481445,1.083984,0.101318
25:19.0,0.515137,1.096436,0.166016
25:19.0,0.556396,1.091309,0.186523
25:19.0,0.607178,1.098877,0.180908
25:19.0,0.644287,1.128418,0.162598
25:19.0,0.681641,1.150879,0.153809
25:19.0,0.678955,1.167725,0.106445
25:19.0,0.668457,1.175049,0.0354
25:19.0,0.687256,1.163086,-0.003174
25:19.0,0.663574,1.148682,-0.050781
25:19.1,0.665771,1.125977,-0.062744
25:19.1,0.677002,1.070313,-0.071777
25:19.1,0.654785,1.011963,-0.086182
25:19.1,0.611816,0.912598,-0.111816
25:19.1,0.549316,0.793701,-0.154297
25:19.1,0.49585,0.722412,-0.218994
25:19.1,0.459473,0.645996,-0.261475
25:19.1,0.439453,0.567871,-0.260742
25:19.1,0.437012,0.585205,-0.304688
25:19.1,0.440918,0.612549,-0.325439
25:19.2,0.416992,0.577393,-0.223145
25:19.2,0.355713,0.511719,-0.166504
25:19.2,0.309814,0.312988,-0.097412
25:19.2,0.226074,0.342285,-0.114746
25:19.2,0.067383,0.276611,-0.19873
25:19.2,-0.207031,0.397949,-0.181641
25:19.2,-0.759521,0.614502,-0.065674
25:19.2,-1.679199,0.626709,-0.134766
25:19.2,-2.3396,-0.041016,0.138672
25:19.2,-2.773926,-1.330811,0.80542
25:19.3,-3.414063,-3.494629,1.885254
25:19.3,-3.611084,-5.223633,3.03418
25:19.3,-3.96167,-4.983887,2.811768
25:19.3,-4.17627,-3.137207,1.968994
25:19.3,-4.801025,-0.829346,1.131104
25:19.3,-6.734375,1.836182,0.634033
25:19.3,-8,6.11084,1.292969
25:19.3,-7.590088,7.999756,3.525635
25:19.3,-1.979248,7.984375,4.859619
25:19.3,1.231934,7.98999,3.740967
25:19.4,1.73291,7.939453,0.39917
25:19.4,1.102295,7.134033,-2.556885
25:19.4,0.642334,5.357178,-2.597656
25:19.4,0.540283,4.848389,-1.200684
25:19.4,0.000977,3.989258,-0.445801
25:19.4,-0.66748,2.824219,-0.061035
25:19.4,-1.075928,1.843262,0.397461
25:19.4,-1.100342,1.045654,0.664063
25:19.4,-0.891113,0.589111,0.487061
25:19.4,-0.662109,0.391602,0.257568
25:19.5,-0.436035,0.313721,0.205322
25:19.5,-0.197021,0.336182,0.217041
25:19.5,0.00293,0.512451,0.2229
25:19.5,0.120117,0.686035,0.273438
25:19.5,0.209961,0.841553,0.356445
25:19.5,0.294922,1.003662,0.409668
25:19.5,0.354492,1.143066,0.429688
25:19.5,0.41333,1.222656,0.414063
25:19.5,0.454102,1.261719,0.33667
25:19.5,0.477539,1.239746,0.221436
25:19.6,0.492432,1.209473,0.133789
25:19.6,0.508057,1.200439,0.062012
25:19.6,0.482178,1.168945,0.003174
25:19.6,0.4021,1.086182,-0.020508
25:19.6,0.327881,0.992432,-0.020508
25:19.6,0.26709,0.873779,-0.038574
25:19.6,0.202393,0.73999,-0.054199
25:19.6,0.14502,0.632324,-0.071777
25:19.6,0.109375,0.531738,-0.081787
25:19.6,0.072266,0.433594,-0.077881
25:19.7,0.022949,0.30957,-0.040527
25:19.7,-0.028076,0.191895,0.058594
25:19.7,-0.054199,0.11792,0.100098
25:19.7,-0.072998,0.102051,0.056885
25:19.7,-0.139404,0.16626,0.043457
25:19.7,-0.372803,0.233398,0.093506
25:19.7,-0.79126,0.227783,0.158691
25:19.7,-1.299561,0.214111,0.164795
25:19.7,-1.755127,0.070313,0.158447
25:19.7,-2.192627,-0.64917,0.416992
25:19.8,-2.682129,-2.426758,1.044189
25:19.8,-3.03125,-4.159668,1.983887
25:19.8,-3.136475,-4.733398,2.401611
25:19.8,-3.263428,-4.133789,2.30127
25:19.8,-3.403564,-2.770264,1.696533
25:19.8,-4.139404,-1.02002,1.157959
25:19.8,-6.141602,1.313232,0.946777
25:19.8,-8,6.024414,1.483643
25:19.8,-7.409912,7.999756,3.23584
25:19.8,-2.667969,7.999756,4.540771
25:19.9,1.26416,7.984375,3.681152
25:19.9,1.45166,7.999756,0.330566
25:19.9,0.93457,6.928223,-2.55957
25:19.9,0.966797,5.596436,-2.678223
25:19.9,0.803711,4.990723,-1.40332
25:19.9,0.168457,4.044189,-0.526367
25:19.9,-0.598877,2.799072,-0.062988
25:19.9,-0.970459,1.703369,0.401123
25:19.9,-0.90918,1.054932,0.495605
25:19.9,-0.722656,0.682373,0.263428
25:20.0,-0.533447,0.510498,0.0354
25:20.0,-0.311035,0.490234,-0.018555
25:20.0,-0.11499,0.608643,0.035645
25:20.0,0.048584,0.734619,0.145508
25:20.0,0.161621,0.907715,0.244141
25:20.0,0.304688,1.08374,0.296387
25:20.0,0.434814,1.260742,0.266602
25:20.0,0.468506,1.374268,0.234619
25:20.0,0.484863,1.406494,0.202637
25:20.0,0.54834,1.421143,0.200684
25:20.1,0.562988,1.371338,0.085205
25:20.1,0.55957,1.30542,-0.057129
25:20.1,0.491211,1.207275,-0.150391
25:20.1,0.392578,1.094727,-0.223877
25:20.1,0.28125,0.981934,-0.21582
25:20.1,0.186768,0.853271,-0.186523
25:20.1,0.092285,0.727295,-0.202637
25:20.1,0.020264,0.619385,-0.186523
25:20.1,-0.008545,0.525391,-0.181885
25:20.1,-0.059814,0.432617,-0.127686
25:20.2,-0.127686,0.352051,-0.057861
25:20.2,-0.209473,0.25708,0.043945
25:20.2,-0.282471,0.18335,0.154297
25:20.2,-0.327148,0.153809,0.243652
25:20.2,-0.404053,0.20459,0.325195
25:20.2,-0.543213,0.29834,0.418457
25:20.2,-0.754639,0.412109,0.460693
25:20.2,-1.150879,0.465576,0.413818
25:20.2,-1.615479,0.308594,0.385498
25:20.2,-1.876953,-0.093506,0.523682
25:20.3,-2.043457,-0.667969,0.8125
25:20.3,-2.434814,-1.989258,1.412109
25:20.3,-2.987061,-3.759033,2.171143
25:20.3,-3.326172,-4.661865,2.711426
25:20.3,-3.416992,-4.416504,2.266846
25:20.3,-3.416748,-3.193604,1.455322
25:20.3,-4.025146,-1.497559,0.996826
25:20.3,-6.042236,1.157471,1.126953
25:20.3,-8,5.806885,1.759766
25:20.3,-8,7.999756,3.259766
25:20.4,-4.576416,7.984375,5.14502
25:20.4,0.526611,7.984375,5.351807
25:20.4,1.491455,7.999756,2.410156
25:20.4,0.638428,7.441162,-1.948242
25:20.4,0.810547,5.716553,-3.658691
25:20.4,1.164795,4.77002,-2.75293
25:20.4,0.870605,4.197021,-1.384033
25:20.4,0.087646,3.392578,-0.851807
25:20.4,-0.623291,2.546631,-0.488281
25:20.4,-1.016846,1.728271,0.084229
25:20.5,-1.022461,1.110352,0.453125
25:20.5,-0.805176,0.754395,0.503174
25:20.5,-0.618652,0.520264,0.406006
25:20.5,-0.496338,0.37085,0.258057
25:20.5,-0.300293,0.404785,0.147217
25:20.5,-0.097168,0.59082,0.138428
25:20.5,0.051758,0.803711,0.230225
25:20.5,0.188721,1.006104,0.34375
25:20.5,0.343018,1.228271,0.413086
25:20.5,0.498291,1.432373,0.441406
25:20.6,0.615967,1.551758,0.367188
25:20.6,0.670654,1.567871,0.232178
25:20.6,0.673828,1.512939,0.061279
25:20.6,0.614258,1.373291,-0.0979
25:20.6,0.508789,1.208984,-0.210205
25:20.6,0.396484,1.060547,-0.276123
25:20.6,0.279541,0.928955,-0.270996
25:20.6,0.203369,0.811035,-0.26709
25:20.6,0.15625,0.725586,-0.259277
25:20.6,0.102539,0.649414,-0.219482
25:20.7,-0.001465,0.557373,-0.161865
25:20.7,-0.10083,0.458252,-0.07373
25:20.7,-0.198975,0.391357,0.031738
25:20.7,-0.269043,0.310059,0.175049
25:20.7,-0.315186,0.268311,0.283691
25:20.7,-0.37915,0.265137,0.322754
25:20.7,-0.573486,0.252441,0.351074
25:20.7,-0.753418,0.401855,0.41626
25:20.7,-1.116211,0.50293,0.417969
25:20.7,-1.554199,0.404053,0.475098
25:20.8,-1.828369,0.037354,0.568359
25:20.8,-1.916504,-0.368896,0.672363
25:20.8,-1.992432,-1.006592,0.981445
25:20.8,-2.227295,-2.066406,1.442383
25:20.8,-2.610107,-3.408447,1.922363
25:20.8,-2.861572,-3.703857,1.882568
25:20.8,-2.78125,-3.444092,1.352539
25:20.8,-2.89917,-2.659424,1.028564
25:20.8,-3.525879,-0.903809,0.904541
25:20.8,-4.893311,1.491943,1.073486
25:20.9,-6.916016,5.174316,1.710449
25:20.9,-6.971191,7.999756,2.631348
25:20.9,-2.98999,7.984375,3.686035
25:20.9,1.63208,7.991455,3.916992
25:20.9,3.47998,7.936035,2.992432
25:20.9,1.890137,7.105957,0.7771
25:20.9,1.276123,5.082764,-1.966064
25:20.9,0.722656,3.503174,-2.529297
25:20.9,0.748535,2.92041,-1.814941
25:20.9,0.442627,2.585693,-0.561279
25:21.0,-0.058594,1.99585,0.120117
25:21.0,-0.511719,1.384766,0.404541
25:21.0,-0.682373,0.79541,0.456787
25:21.0,-0.607178,0.352783,0.455566
25:21.0,-0.397217,0.155273,0.417725
25:21.0,-0.204346,0.076172,0.300781
25:21.0,-0.114258,0.032959,0.136475
25:21.0,-0.061523,0.060303,-0.011719
25:21.0,0.025391,0.176025,-0.047363
25:21.0,0.066895,0.341309,-0.040039
25:21.1,0.111328,0.479248,-0.009033
25:21.1,0.133301,0.58667,0.018799
25:21.1,0.106445,0.658447,0.051025
25:21.1,0.071533,0.734375,0.055908
25:21.1,0.114502,0.82666,0.094727
25:21.1,0.188965,0.935059,0.118408
25:21.1,0.232422,1.030518,0.095947
25:21.1,0.241455,1.114746,0.030518
25:21.1,0.257324,1.163086,-0.01709
25:21.1,0.276611,1.177734,-0.010498
25:21.2,0.277588,1.167969,-0.00708
25:21.2,0.257813,1.142822,0.026367
25:21.2,0.244141,1.111328,0.130615
25:21.2,0.218262,1.071777,0.197266
25:21.2,0.193115,1.022705,0.210938
25:21.2,0.177246,0.973389,0.237305
25:21.2,0.169922,0.937012,0.255371
25:21.2,0.171875,0.894287,0.243164
25:21.2,0.171875,0.867676,0.223633
25:21.2,0.171875,0.830078,0.214844
25:21.3,0.171875,0.810059,0.228027
25:21.3,0.174072,0.802734,0.235596
25:21.3,0.161865,0.797607,0.227295
25:21.3,0.152588,0.784424,0.259766
25:21.3,0.16626,0.787842,0.302979
25:21.3,0.170654,0.805908,0.327393
25:21.3,0.18457,0.821777,0.322998
25:21.3,0.17749,0.837646,0.287354
25:21.3,0.170898,0.851074,0.29248
25:21.3,0.171875,0.880371,0.286377
25:21.4,0.174072,0.901367,0.282471
25:21.4,0.160156,0.91626,0.271729
25:21.4,0.157715,0.934326,0.257324
25:21.4,0.141846,0.935791,0.225098
25:21.4,0.1521,0.949707,0.219482
25:21.4,0.158691,0.955566,0.206299
25:21.4,0.141602,0.938477,0.202637
25:21.4,0.153076,0.949951,0.204834
25:21.4,0.154785,0.953369,0.19165
25:21.4,0.167725,0.953125,0.172119
25:21.5,0.183838,0.953125,0.18335
25:21.5,0.201172,0.951416,0.199707
25:21.5,0.201904,0.965576,0.217041
25:21.5,0.217041,0.98291,0.221191
25:21.5,0.217529,0.985596,0.188965
25:21.5,0.233154,0.970703,0.203613
25:21.5,0.235107,0.954834,0.175293
25:21.5,0.219482,0.939453,0.141846
25:21.5,0.218506,0.908203,0.140381
25:21.5,0.21875,0.876221,0.140137
25:21.6,0.21875,0.844238,0.155762
25:21.6,0.218506,0.812256,0.171875
25:21.6,0.202637,0.8125,0.171875
25:21.6,0.202637,0.8125,0.171631
25:21.6,0.186035,0.812256,0.172363
25:21.6,0.169922,0.813232,0.187256
25:21.6,0.15625,0.830811,0.170898
25:21.6,0.172852,0.865967,0.172119
25:21.6,0.172852,0.93457,0.167725
25:21.6,0.193604,1.037598,0.115967
25:21.7,0.242188,1.183105,0.070313
25:21.7,0.272705,1.306396,0.037598
25:21.7,0.301514,1.420166,-0.006592
25:21.7,0.320313,1.568848,-0.020996
25:21.7,0.373291,1.729492,-0.061279
25:21.7,0.444824,1.88623,-0.11792
25:21.7,0.539551,2.02124,-0.104004
25:21.7,0.626221,2.126465,-0.069336
25:21.7,0.725586,2.210693,-0.029541
25:21.7,0.738281,2.244141,0.031738
25:21.8,0.702637,2.218994,0.050537
25:21.8,0.602539,2.125,0.05249
25:21.8,0.464355,2.024414,0.060303
25:21.8,0.365967,1.94873,0.004639
25:21.8,0.349365,1.924561,-0.063965
25:21.8,0.270508,1.860352,-0.061768
25:21.8,0.112549,1.758789,-0.041016
25:21.8,-0.020996,1.663086,0.017334
25:21.8,-0.114258,1.575195,0.104736
25:21.8,-0.196777,1.487793,0.14917
25:21.9,-0.267578,1.407471,0.179932
25:21.9,-0.366455,1.412842,0.162598
25:21.9,-0.671631,1.474609,0.155762
25:21.9,-1.227051,1.635498,0.208984
25:21.9,-2.130127,1.707031,0.405762
25:21.9,-2.962158,1.384277,0.628174
25:21.9,-3.447998,0.285889,1.185791
25:21.9,-4.163086,-2.377441,2.4021
25:21.9,-4.85791,-5.15332,3.725098
25:21.9,-4.958984,-5.896484,4.027588
25:22.0,-4.488525,-4.624023,2.781982
25:22.0,-4.159668,-2.199951,1.305664
25:22.0,-4.853516,-0.187256,0.826172
25:22.0,-6.44043,2.161377,0.921387
25:22.0,-7.427002,6.222656,1.599854
25:22.0,-6.319092,7.999756,4.046875
25:22.0,-2.684814,7.999756,5.687744
25:22.0,0.871582,7.999756,4.622314
25:22.0,1.641113,7.876953,0.703613
25:22.0,1.501709,6.217773,-2.669434
25:22.1,1.805176,4.94751,-2.574707
25:22.1,1.37085,4.150146,-1.019043
25:22.1,0.378906,3.078369,-0.165283
25:22.1,-0.464844,2.034912,0.276367
25:22.1,-0.826416,1.218994,0.665527
25:22.1,-0.739746,0.74292,0.731201
25:22.1,-0.541748,0.475586,0.486084
25:22.1,-0.341309,0.276855,0.261719
25:22.1,-0.110107,0.179443,0.1521
25:22.1,0.048828,0.168945,0.130615
25:22.2,0.126953,0.171875,0.17041
25:22.2,0.167236,0.169678,0.223877
25:22.2,0.174805,0.180176,0.250244
25:22.2,0.161133,0.211182,0.239502
25:22.2,0.148438,0.224854,0.224609
25:22.2,0.106201,0.279785,0.192139
25:22.2,0.05127,0.341064,0.190186
25:22.2,0.056396,0.428467,0.161865
25:22.2,0.086914,0.550537,0.146484
25:22.2,0.11499,0.690674,0.102783
25:22.3,0.189453,0.85083,0.052246
25:22.3,0.269531,0.983643,0.032227
25:22.3,0.351074,1.08374,0.031006
25:22.3,0.4021,1.149658,0.030273
25:22.3,0.436035,1.215332,0.044189
25:22.3,0.438477,1.233887,0.092041
25:22.3,0.406982,1.234619,0.093994
25:22.3,0.390625,1.219238,0.077637
25:22.3,0.374756,1.155273,0.141113
25:22.3,0.358643,1.09082,0.172363
25:22.4,0.341553,1.010742,0.170654
25:22.4,0.294189,0.930664,0.140625
25:22.4,0.279541,0.852539,0.175049
25:22.4,0.263428,0.806396,0.206055
25:22.4,0.248779,0.758301,0.219482
25:22.4,0.25,0.712158,0.22168
25:22.4,0.25,0.681641,0.252441
25:22.4,0.25,0.649414,0.251709
25:22.4,0.247559,0.621338,0.267334
25:22.4,0.234619,0.626953,0.262939
25:22.5,0.254639,0.644043,0.250732
25:22.5,0.265137,0.663086,0.267334
25:22.5,0.245361,0.693848,0.265625
25:22.5,0.229492,0.707764,0.265625
25:22.5,0.213135,0.723389,0.264893
25:22.5,0.201416,0.73877,0.269775
25:22.5,0.199951,0.758301,0.280273
25:22.5,0.181885,0.791992,0.260742
25:22.5,0.16626,0.822754,0.240234
25:22.5,0.150391,0.858643,0.211426
25:22.6,0.131836,0.908203,0.193359
25:22.6,0.12915,0.955566,0.158691
25:22.6,0.172363,1.001709,0.13208
25:22.6,0.223145,1.054199,0.119629
25:22.6,0.265137,1.119629,0.099854
25:22.6,0.296875,1.183838,0.059082
25:22.6,0.315674,1.242432,0.012695
25:22.6,0.316895,1.284424,-0.00293
25:22.6,0.334961,1.302734,-0.003174
25:22.6,0.352295,1.293457,-0.029053
25:22.7,0.361572,1.269043,-0.057861
25:22.7,0.359375,1.237061,-0.064453
25:22.7,0.361084,1.200195,-0.065918
25:22.7,0.355713,1.145508,-0.051514
25:22.7,0.330566,1.071289,-0.019531
25:22.7,0.296875,0.998291,0.026611
25:22.7,0.261475,0.935303,0.09375
25:22.7,0.244141,0.880371,0.160645
25:22.7,0.256104,0.826904,0.207031
25:22.7,0.271484,0.813232,0.239014
25:22.8,0.300049,0.829834,0.253418
25:22.8,0.313477,0.871826,0.251953
25:22.8,0.32373,0.939941,0.243164
25:22.8,0.324707,1.000488,0.230225
25:22.8,0.291992,1.072998,0.191162
25:22.8,0.276123,1.153076,0.166992
25:22.8,0.286377,1.229492,0.122314
25:22.8,0.313477,1.318359,0.067627
25:22.8,0.348633,1.416504,0.006836
25:22.8,0.369629,1.498291,-0.041016
25:22.9,0.379639,1.582031,-0.053467
25:22.9,0.417236,1.697021,-0.027344
25:22.9,0.461914,1.836426,-0.000244
25:22.9,0.529541,1.988525,-0.001221
25:22.9,0.628418,2.095703,-0.046387
25:22.9,0.706543,2.121826,-0.156006
25:22.9,0.676025,2.081299,-0.22998
25:22.9,0.484619,1.956787,-0.224121
25:22.9,0.236816,1.796875,-0.222168
25:22.9,0.044922,1.650635,-0.21167
25:23.0,-0.103516,1.514404,-0.087891
25:23.0,-0.241455,1.329102,0.050293
25:23.0,-0.300293,1.162109,0.13916
25:23.0,-0.353027,1.010742,0.20752
25:23.0,-0.466309,0.917725,0.246582
25:23.0,-0.624023,0.87915,0.247314
25:23.0,-0.899658,0.863281,0.272217
25:23.0,-1.325195,0.854492,0.322998
25:23.0,-1.855713,0.601318,0.506836
25:23.0,-2.216553,0.04248,0.60376
25:23.1,-2.885742,-1.641846,1.288086
25:23.1,-3.476318,-3.979004,2.193359
25:23.1,-3.861816,-5.220459,2.686768
25:23.1,-3.935303,-5.124756,2.289307
25:23.1,-3.981201,-3.633301,1.447021
25:23.1,-4.434082,-1.297852,0.762939
25:23.1,-5.908203,1.116699,1.060791
25:23.1,-7.027832,4.184082,1.605713
25:23.1,-7.163574,7.075684,3.651611
25:23.1,-5.284424,7.999756,6.241211
25:23.2,-0.979004,7.989746,6.236816
25:23.2,0.720703,7.895264,3.032227
25:23.2,1.187744,6.652344,-1.858887
25:23.2,2.0354,5.515625,-2.44873
25:23.2,1.926514,4.465576,-1.103516
25:23.2,0.763916,3.415771,-0.269287
25:23.2,-0.229004,2.184326,0.385742
25:23.2,-0.715332,1.376709,0.968262
25:23.2,-0.748779,0.858643,0.95752
25:23.2,-0.608887,0.537598,0.761475
25:23.3,-0.468262,0.313232,0.537598
25:23.3,-0.26416,0.184082,0.335449
25:23.3,-0.072754,0.149902,0.310303
25:23.3,0.037598,0.179443,0.279785
25:23.3,0.11792,0.217041,0.29248
25:23.3,0.1521,0.266602,0.256836
25:23.3,0.155029,0.314941,0.210449
25:23.3,0.136475,0.35498,0.132813
25:23.3,0.109375,0.39917,0.096924
25:23.3,0.064941,0.476807,0.053467
25:23.4,0.05957,0.550781,0.003906
25:23.4,0.101074,0.678467,0.027588
25:23.4,0.19165,0.828857,0.047119
25:23.4,0.261719,0.956055,0.024414
25:23.4,0.293945,1.034668,0.005859
25:23.4,0.299072,1.082275,-0.000488
25:23.4,0.296875,1.103027,0.032227
25:23.4,0.300049,1.119629,0.082275
25:23.4,0.284912,1.121826,0.137939
25:23.4,0.255859,1.103516,0.197754
25:23.5,0.240479,1.08252,0.239258
25:23.5,0.230469,1.039795,0.253906
25:23.5,0.241943,1,0.253662
25:23.5,0.251953,0.960938,0.240234
25:23.5,0.25,0.919678,0.190674
25:23.5,0.25,0.890137,0.164063
25:23.5,0.25,0.858643,0.177979
25:23.5,0.251953,0.827148,0.195557
25:23.5,0.240967,0.795654,0.211426
25:23.5,0.237061,0.761963,0.227051
25:23.6,0.21582,0.739746,0.24292
25:23.6,0.197754,0.725586,0.258545
25:23.6,0.214844,0.709961,0.276611
25:23.6,0.210205,0.694092,0.282471
25:23.6,0.20166,0.676025,0.283447
25:23.6,0.205322,0.672852,0.273193
25:23.6,0.192627,0.661377,0.258545
25:23.6,0.188721,0.652832,0.225098
25:23.6,0.174316,0.662354,0.232178
25:23.6,0.181885,0.690186,0.213135
25:23.7,0.186035,0.725098,0.201172
25:23.7,0.201172,0.74292,0.203125
25:23.7,0.192139,0.769531,0.203125
25:23.7,0.186768,0.802002,0.205078
25:23.7,0.189453,0.831299,0.190918
25:23.7,0.173096,0.875488,0.190918
25:23.7,0.183838,0.92334,0.164307
25:23.7,0.183838,0.974854,0.140625
25:23.7,0.211182,0.996582,0.153076
25:23.7,0.230713,1.013428,0.159912
25:23.8,0.247803,1.019287,0.129639
25:23.8,0.250244,0.993164,0.124268
25:23.8,0.25293,0.945801,0.125
25:23.8,0.223389,0.914551,0.12085
25:23.8,0.205566,0.851807,0.164795
25:23.8,0.190674,0.814697,0.198486
25:23.8,0.160156,0.810303,0.230225
25:23.8,0.127441,0.838623,0.263672
25:23.8,0.109863,0.900146,0.268066
25:23.8,0.109131,0.978027,0.207764
25:23.9,0.10791,1.104248,0.111816
25:23.9,0.186523,1.248047,0.062744
25:23.9,0.250732,1.424316,0.031006
25:23.9,0.299561,1.616211,0.030518
25:23.9,0.395996,1.791992,-0.001953
25:23.9,0.473877,1.967041,-0.033203
25:23.9,0.522217,2.125488,-0.048584
25:23.9,0.604248,2.265381,-0.062256
25:23.9,0.67627,2.352051,-0.044189
25:23.9,0.650879,2.356689,-0.029785
25:24.0,0.597412,2.300537,-0.032715
25:24.0,0.512939,2.218506,-0.050293
25:24.0,0.420898,2.135254,-0.061279
25:24.0,0.35376,2.019043,-0.049072
25:24.0,0.237549,1.885498,-0.085693
25:24.0,0.126221,1.7229,-0.12207
25:24.0,0.018555,1.566895,-0.15918
25:24.0,-0.078369,1.429443,-0.101807
25:24.0,-0.185791,1.304688,0.016113
25:24.0,-0.254395,1.178711,0.105469
25:24.1,-0.293213,1.046387,0.185059
25:24.1,-0.325684,0.912354,0.247803
25:24.1,-0.372803,0.824951,0.262939
25:24.1,-0.462158,0.804199,0.270752
25:24.1,-0.712646,0.908203,0.231689
25:24.1,-1.165039,1.028564,0.287842
25:24.1,-1.828125,1.022949,0.365723
25:24.1,-2.498291,0.679443,0.495117
25:24.1,-2.857666,0.140381,0.939941
25:24.1,-3.250732,-1.536865,1.644287
25:24.2,-3.804443,-4.437012,2.576904
25:24.2,-4.124512,-6.058838,3.243896
25:24.2,-3.97583,-5.455566,2.384766
25:24.2,-3.694092,-3.365234,1.178955
25:24.2,-4.235596,-0.966309,0.61084
25:24.2,-6.165527,1.710693,0.734375
25:24.2,-8,5.76709,1.334961
25:24.2,-7.521973,7.999756,2.816406
25:24.2,-3.115967,7.999756,4.057861
25:24.2,1.791016,7.995605,4.392334
25:24.3,2.622803,7.999756,3.125977
25:24.3,1.447998,6.700928,-0.608887
25:24.3,0.946777,3.994141,-2.869385
25:24.3,0.715088,3.093994,-2.437012
25:24.3,0.651123,2.968506,-1.235596
25:24.3,0.123535,2.470703,-0.329834
25:24.3,-0.551514,1.554199,0.195801
25:24.3,-0.670654,0.975342,0.638916
25:24.3,-0.5271,0.762451,0.808105
25:24.3,-0.422119,0.420166,0.719482
25:24.4,-0.288818,0.089844,0.40918
25:24.4,-0.12915,-0.01709,0.170654
25:24.4,-0.012451,0.031738,0.0896
25:24.4,0.053711,0.091309,0.125244
25:24.4,0.067871,0.137695,0.187744
25:24.4,0.05835,0.184814,0.223145
25:24.4,0.012451,0.227539,0.265137
25:24.4,-0.000244,0.297607,0.231201
25:24.4,-0.009033,0.378418,0.232178
25:24.4,-0.030029,0.452881,0.216064
25:24.5,-0.028564,0.549316,0.182129
25:24.5,0.018555,0.699951,0.154785
25:24.5,0.124756,0.849854,0.104492
25:24.5,0.218262,0.981201,-0.003418
25:24.5,0.25415,1.100342,-0.086914
25:24.5,0.317871,1.171875,-0.087891
25:24.5,0.329346,1.239502,-0.041748
25:24.5,0.32959,1.264404,-0.008545
25:24.5,0.317627,1.270508,0.039307
25:24.5,0.286133,1.230225,0.061035
25:24.6,0.269531,1.169189,0.063965
25:24.6,0.238281,1.091064,0.045898
25:24.6,0.220703,1.01001,0.073242
25:24.6,0.204102,0.945068,0.106201
25:24.6,0.203613,0.880615,0.123291
25:24.6,0.188721,0.831787,0.138672
25:24.6,0.172119,0.783447,0.169434
25:24.6,0.171631,0.750732,0.217285
25:24.6,0.171631,0.734375,0.249756
25:24.6,0.1875,0.734131,0.281494
25:24.7,0.187744,0.734619,0.280762
25:24.7,0.203613,0.750488,0.264893
25:24.7,0.203857,0.749756,0.264648
25:24.7,0.218506,0.750732,0.249023
25:24.7,0.201904,0.768799,0.25
25:24.7,0.203125,0.800049,0.25
25:24.7,0.199951,0.817871,0.25
25:24.7,0.167236,0.86792,0.248047
25:24.7,0.154297,0.917725,0.233154
25:24.7,0.157715,0.982666,0.230469
25:24.8,0.17749,1.046387,0.195801
25:24.8,0.211426,1.10791,0.160889
25:24.8,0.240723,1.150879,0.116943
25:24.8,0.252197,1.180664,0.105225
25:24.8,0.247314,1.212402,0.086182
25:24.8,0.22876,1.244629,0.052002
25:24.8,0.216553,1.273926,0.023926
25:24.8,0.21875,1.281494,0.010986
25:24.8,0.21875,1.253662,-0.009277
25:24.8,0.21875,1.202637,-0.039795
25:24.9,0.220459,1.151855,-0.050781
25:24.9,0.212402,1.080078,-0.039551
25:24.9,0.169434,1.010254,-0.004395
25:24.9,0.130859,0.956787,0.031738
25:24.9,0.112061,0.877197,0.081543
25:24.9,0.089111,0.821777,0.131104
25:24.9,0.092285,0.772949,0.164795
25:24.9,0.09668,0.739014,0.190186
25:24.9,0.12207,0.759277,0.23291
25:24.9,0.149658,0.830322,0.231689
25:25.0,0.16333,0.93335,0.209961
25:25.0,0.175781,1.063721,0.199219
25:25.0,0.203369,1.234375,0.211426
25:25.0,0.26001,1.409424,0.218994
25:25.0,0.326904,1.584229,0.186523
25:25.0,0.427734,1.751709,0.127686
25:25.0,0.569336,1.901367,0.062744
25:25.0,0.710938,2.041016,0.003662
25:25.0,0.820801,2.138916,-0.070801
25:25.0,0.865234,2.184082,-0.197754
25:25.1,0.812012,2.139648,-0.272705
25:25.1,0.683105,2.009277,-0.310547
25:25.1,0.525391,1.908447,-0.387695
25:25.1,0.386475,1.825928,-0.416748
25:25.1,0.196045,1.73877,-0.351318
25:25.1,-0.019775,1.604492,-0.239502
25:25.1,-0.186035,1.448486,-0.069824
25:25.1,-0.293213,1.320313,0.133057
25:25.1,-0.314941,1.180908,0.229248
25:25.1,-0.360596,1.049072,0.259766
25:25.2,-0.525146,0.973877,0.19873
25:25.2,-0.764404,0.978271,0.150146
25:25.2,-1.085205,0.995117,0.217773
25:25.2,-1.626709,0.927734,0.40625
25:25.2,-2.122803,0.620361,0.594482
25:25.2,-2.332764,0.163818,0.685791
25:25.2,-2.767334,-1.150879,1.269531
25:25.2,-3.200684,-3.466309,2.168213
25:25.2,-3.587891,-4.840332,2.7146
25:25.2,-3.54248,-4.994873,2.40332
25:25.3,-3.349854,-3.715088,1.736328
25:25.3,-3.395996,-1.397949,1.142334
25:25.3,-4.430176,0.75708,1.182129
25:25.3,-5.960449,3.336182,1.455322
25:25.3,-6.298828,6.517822,2.169189
25:25.3,-4.583252,7.89917,4.122314
25:25.3,-1.143799,7.999756,4.591064
25:25.3,1.240723,7.999756,3.696777
25:25.3,1.273193,6.608154,1.052002
25:25.3,0.984131,4.455078,-1.672607
25:25.4,1.230469,3.722412,-2.256836
25:25.4,1.255127,3.184326,-1.506836
25:25.4,0.915527,2.61084,-0.772705
25:25.4,0.344727,2.049072,-0.565186
25:25.4,-0.112305,1.532227,-0.157471
25:25.4,-0.311279,1.191895,0.276123
25:25.4,-0.264893,0.935059,0.485596
25:25.4,-0.200439,0.695557,0.530518
25:25.4,-0.12085,0.506836,0.446045
25:25.4,-0.057373,0.400391,0.283691
25:25.5,0.007324,0.373291,0.12915
25:25.5,0.084961,0.375977,0.075195
25:25.5,0.109131,0.390381,0.096924
25:25.5,0.072998,0.373291,0.131348
25:25.5,0.039307,0.377686,0.180664
25:25.5,-0.008301,0.413818,0.224609
25:25.5,-0.032471,0.465088,0.238037
25:25.5,-0.012451,0.530029,0.252686
25:25.5,0.007813,0.595459,0.240967
25:25.5,0.061523,0.679199,0.173828
25:25.6,0.126709,0.775879,0.121582
25:25.6,0.191162,0.875,0.043457
25:25.6,0.248047,0.981689,0.005371
25:25.6,0.275635,1.054443,0.000732
25:25.6,0.307129,1.109131,0.02002
25:25.6,0.3396,1.134766,0.039795
25:25.6,0.36792,1.136963,0.073486
25:25.6,0.37793,1.094238,0.105957
25:25.6,0.372314,1.044678,0.13208
25:25.6,0.349609,0.998535,0.150146
25:25.7,0.314697,0.945068,0.184082
25:25.7,0.289307,0.882568,0.2146
25:25.7,0.269287,0.848145,0.252441
25:25.7,0.239746,0.835693,0.293945
25:25.7,0.229248,0.822998,0.335938
25:25.7,0.243408,0.835693,0.401855
25:25.7,0.279297,0.876221,0.431396
25:25.7,0.3125,0.935059,0.410645
25:25.7,0.338867,0.987305,0.382813
25:25.7,0.347412,1.017822,0.364258
25:25.8,0.338379,1.0354,0.322021
25:25.8,0.320557,1.034668,0.279785
25:25.8,0.306641,1.02002,0.252197
25:25.8,0.281494,0.986328,0.213135
25:25.8,0.257813,0.947266,0.162109
25:25.8,0.236084,0.895996,0.122803
25:25.8,0.200684,0.859131,0.095215
25:25.8,0.179443,0.819092,0.05127
25:25.8,0.155029,0.778564,0.017334
25:25.8,0.128418,0.744629,0.013916
25:25.9,0.123291,0.730957,0.013428
25:25.9,0.122559,0.734375,0.022461
25:25.9,0.13208,0.729736,0.037598
25:25.9,0.14917,0.746582,0.065186
25:25.9,0.165039,0.792969,0.088135
25:25.9,0.180664,0.829346,0.102539
25:25.9,0.196533,0.87207,0.118408
25:25.9,0.212158,0.910156,0.134033
25:25.9,0.225586,0.94043,0.15918
25:25.9,0.254639,0.976563,0.122559
25:26.0,0.271484,0.988525,0.119629
25:26.0,0.313232,0.975342,0.114502
25:26.0,0.344238,0.960938,0.106201
25:26.0,0.337158,0.937988,0.116455
25:26.0,0.310303,0.881836,0.14917
25:26.0,0.265869,0.815186,0.148926
25:26.0,0.217773,0.761963,0.19873
25:26.0,0.168213,0.723389,0.253906
25:26.0,0.129395,0.717773,0.294189
25:26.0,0.12207,0.714844,0.288574
25:26.1,0.132568,0.739258,0.256592
25:26.1,0.177002,0.781494,0.241211
25:26.1,0.213379,0.858154,0.195313
25:26.1,0.232666,0.924316,0.174561
25:26.1,0.23584,0.987793,0.15625
25:26.1,0.224121,1.048828,0.168701
25:26.1,0.178223,1.137695,0.186035
25:26.1,0.143555,1.277344,0.1875
25:26.1,0.121338,1.418457,0.189209
25:26.1,0.19043,1.603516,0.160645
25:26.2,0.376953,1.869629,0.10083
25:26.2,0.567139,2.186523,-0.03833
25:26.2,0.835205,2.568848,-0.245117
25:26.2,1.297363,2.969238,-0.453369
25:26.2,1.435791,3.269775,-0.70752
25:26.2,1.170166,3.276367,-0.781494
25:26.2,0.732178,3.061768,-0.710693
25:26.2,0.253418,2.813721,-0.540039
25:26.2,-0.171143,2.424316,-0.231201
25:26.2,-0.498779,2.037598,0.053467
25:26.3,-0.572754,1.609131,0.290039
25:26.3,-0.590576,1.255127,0.333496
25:26.3,-0.51709,0.981445,0.324951
25:26.3,-0.435547,0.77417,0.287842
25:26.3,-0.361816,0.639893,0.244141
25:26.3,-0.338135,0.560059,0.2229
25:26.3,-0.386963,0.665039,0.124023
25:26.3,-0.670898,0.781738,0.026855
25:26.3,-1.224365,0.925781,0.138672
25:26.3,-1.95752,1.027588,0.276123
25:26.4,-2.495605,0.820801,0.434814
25:26.4,-2.790527,0.507813,0.722168
25:26.4,-3.14917,-0.276367,1.383789
25:26.4,-3.445557,-1.697021,2.144043
25:26.4,-3.989502,-3.167969,2.904297
25:26.4,-4.506104,-3.963867,3.3125
25:26.4,-4.112549,-3.284424,2.311279
25:26.4,-3.203125,-2.201904,0.798828
25:26.4,-2.877686,-1.669189,0.462646
25:26.4,-3.697998,-0.332275,0.798096
25:26.5,-5.371826,2.589355,1.01001
25:26.5,-7.664795,6.498291,1.859131
25:26.5,-6.766846,7.999756,2.859619
25:26.5,-0.778564,7.984375,3.69751
25:26.5,5.204102,7.984375,3.314941
25:26.5,6.111328,7.999756,2.608154
25:26.5,2.752197,7.44165,2.004639
25:26.5,0.773926,4.626709,-1.270752
25:26.5,-0.273193,2.2229,-2.325439
25:26.5,-0.318848,1.48877,-0.78833
25:26.6,-0.099365,1.285645,0.466309
25:26.6,-0.092285,1.10791,0.880127
25:26.6,-0.289307,0.624512,0.911621
25:26.6,-0.255371,0.200439,0.623535
25:26.6,-0.022705,0.186035,0.401367
25:26.6,0.160156,0.172852,0.403076
25:26.6,0.258057,0.072754,0.303711
25:26.6,0.291748,0.027588,0.139404
25:26.6,0.321289,0.079102,-0.008789
25:26.6,0.366699,0.179443,-0.063477
25:26.7,0.386963,0.260986,-0.036865
25:26.7,0.349854,0.299316,0.02124
25:26.7,0.252197,0.335693,0.064941
25:26.7,0.190918,0.387451,0.11084
25:26.7,0.182617,0.482666,0.128418
25:26.7,0.190918,0.591797,0.127197
25:26.7,0.219971,0.72583,0.121094
25:26.7,0.313232,0.861328,0.091553
25:26.7,0.429932,0.975342,0.009033
25:26.7,0.535889,1.091797,-0.166016
25:26.8,0.601807,1.174316,-0.350098
25:26.8,0.613525,1.204102,-0.451416
25:26.8,0.60376,1.193848,-0.432861
25:26.8,0.562988,1.185059,-0.346191
25:26.8,0.51416,1.119629,-0.237061
25:26.8,0.464844,1.03833,-0.119629
25:26.8,0.42627,0.957275,-0.043457
25:26.8,0.422852,0.892822,-0.003662
25:26.8,0.412109,0.812988,0.000488
25:26.8,0.380859,0.761963,0
25:26.9,0.362305,0.699707,0
25:26.9,0.34668,0.648193,-0.002686
25:26.9,0.332275,0.616211,0.02124
25:26.9,0.299561,0.567627,0.097412
25:26.9,0.296631,0.546631,0.164063
25:26.9,0.295898,0.559326,0.213867
25:26.9,0.310791,0.590332,0.246094
25:26.9,0.326172,0.621826,0.294189
25:26.9,0.357422,0.668701,0.3125
25:26.9,0.389648,0.73291,0.297363
25:27.0,0.406006,0.749756,0.28125
25:27.0,0.390137,0.765625,0.249512
25:27.0,0.374268,0.765625,0.233154
25:27.0,0.357666,0.765381,0.201416
25:27.0,0.32666,0.766113,0.186768
25:27.0,0.329834,0.782715,0.1875
25:27.0,0.362305,0.799805,0.185303
25:27.0,0.377441,0.832764,0.149902
25:27.0,0.391846,0.864258,0.102295
25:27.0,0.390625,0.899658,0.076904
25:27.1,0.390625,0.966553,0.095459
25:27.1,0.389893,1.025391,0.092041
25:27.1,0.394531,1.056641,0.07251
25:27.1,0.43042,1.10376,0.037598
25:27.1,0.456055,1.132324,-0.021484
25:27.1,0.458984,1.137451,-0.110352
25:27.1,0.488281,1.100342,-0.134277
25:27.1,0.486084,1.064941,-0.167725
25:27.1,0.474121,1.02002,-0.190674
25:27.1,0.427734,0.980469,-0.157227
25:27.2,0.414795,0.927734,-0.08667
25:27.2,0.406494,0.938232,-0.025146
25:27.2,0.430176,0.966553,0.008545
25:27.2,0.462891,1.04541,-0.00708
25:27.2,0.536621,1.181152,-0.037109
25:27.2,0.705566,1.402344,-0.094971
25:27.2,0.956299,1.70459,-0.250488
25:27.2,1.257568,2.041504,-0.44043
25:27.2,1.422119,2.323486,-0.581055
25:27.2,1.33252,2.426758,-0.55957
25:27.3,1.023926,2.319336,-0.435547
25:27.3,0.796875,2.238037,-0.333984
25:27.3,0.744385,2.240967,-0.264648
25:27.3,0.632568,2.235596,-0.218506
25:27.3,0.387939,2.182861,-0.166504
25:27.3,0.175537,2.188232,0.07251
25:27.3,0.007324,2.137207,0.546631
25:27.3,-0.152588,1.79834,0.915771
25:27.3,-0.309082,1.28833,1.069336
25:27.3,-0.318115,0.894287,1.109131
25:27.4,-0.214355,0.666748,1.006348
25:27.4,-0.185059,0.566406,0.839355
25:27.4,-0.234619,0.467285,0.684326
25:27.4,-0.365479,0.301514,0.607178
25:27.4,-0.508057,0.164551,0.612549
25:27.4,-0.658691,0.139648,0.633301
25:27.4,-0.86084,0.119141,0.642334
25:27.4,-1.136475,0.044434,0.672852
25:27.4,-1.464111,-0.068115,0.768311
25:27.4,-2.057373,-0.68042,1.027344
25:27.5,-3.124268,-2.144531,1.541504
25:27.5,-4.169189,-3.727051,2.358154
25:27.5,-4.566406,-4.002686,2.531738
25:27.5,-4.628906,-2.954834,2.227783
25:27.5,-4.553467,-1.279053,1.516846
25:27.5,-5.045654,0.586182,1.073242
25:27.5,-6.469482,3.4729,0.983643
25:27.5,-6.428955,7.277832,1.068115
25:27.5,-3.136719,7.999756,2.070068
25:27.5,1.76123,7.984375,2.854492
25:27.6,3.655762,7.999756,2.516113
25:27.6,2.784424,7.339355,-0.209961
25:27.6,1.472412,4.922363,-1.760986
25:27.6,0.129395,2.678955,-0.947754
25:27.6,-0.138672,1.5354,0.311523
25:27.6,-0.070557,1.327637,0.848389
25:27.6,0.035156,1.309814,0.645508
25:27.6,0.147217,1.21875,0.19043
25:27.6,0.26001,1.186279,-0.101807
25:27.6,0.362793,1.072754,-0.269531
25:27.7,0.407715,0.935303,-0.270752
25:27.7,0.36792,0.730957,-0.238037
25:27.7,0.305176,0.563232,-0.22168
25:27.7,0.241211,0.464111,-0.189209
25:27.7,0.177979,0.352783,-0.187256
25:27.7,0.098877,0.255127,-0.189941
25:27.7,0.017822,0.188965,-0.113037
25:27.7,-0.015137,0.171387,-0.017578
25:27.7,-0.015381,0.235107,0.125732
25:27.7,0.032959,0.363525,0.220703
25:27.8,0.097656,0.507813,0.25
25:27.8,0.177979,0.652344,0.214355
25:27.8,0.257813,0.811035,0.130859
25:27.8,0.338623,0.937256,0.019531
25:27.8,0.434326,1.0625,-0.054688
25:27.8,0.510254,1.15332,-0.079102
25:27.8,0.55249,1.21167,-0.058105
25:27.8,0.5625,1.237793,-0.025146
25:27.8,0.539795,1.229248,0.008545
25:27.8,0.486816,1.172363,0.05835
25:27.9,0.421631,1.0896,0.101318
25:27.9,0.358398,1.009766,0.112305
25:27.9,0.293213,0.936523,0.101563
25:27.9,0.241943,0.888672,0.050781
25:27.9,0.25,0.830566,0.02417
25:27.9,0.250488,0.79834,0.009277
25:27.9,0.246094,0.756592,-0.000244
25:27.9,0.232178,0.740723,0.027832
25:27.9,0.233398,0.71167,0.074951
25:27.9,0.238525,0.693115,0.110107
25:28.0,0.253174,0.662598,0.149902
25:28.0,0.245117,0.653809,0.165771
25:28.0,0.231934,0.655029,0.199707
25:28.0,0.233154,0.657959,0.231201
25:28.0,0.239502,0.6875,0.267578
25:28.0,0.252197,0.73291,0.275879
25:28.0,0.25,0.769043,0.239502
25:28.0,0.25,0.812744,0.231934
25:28.0,0.251221,0.840332,0.235596
25:28.0,0.243652,0.879639,0.228027
25:28.1,0.230469,0.921143,0.218018
25:28.1,0.239258,0.960205,0.215088
25:28.1,0.257324,0.99585,0.192139
25:28.1,0.272949,1.009033,0.147949
25:28.1,0.290527,1.019287,0.113281
25:28.1,0.298828,1.008057,0.0979
25:28.1,0.298584,0.997803,0.099365
25:28.1,0.290771,0.997803,0.109131
25:28.1,0.273193,1.003906,0.117432
25:28.1,0.257324,1.033936,0.130859
25:28.2,0.241699,1.050293,0.109863
25:28.2,0.223877,1.053223,0.087891
25:28.2,0.217041,1.024414,0.051758
25:28.2,0.220947,0.983643,0.019531
25:28.2,0.209229,0.944336,0.002441
25:28.2,0.203857,0.897949,0.001221
25:28.2,0.197754,0.838623,0.039307
25:28.2,0.170654,0.777344,0.089355
25:28.2,0.135742,0.75708,0.138916
25:28.2,0.109863,0.774658,0.18042
25:28.3,0.116455,0.833252,0.191895
25:28.3,0.129639,0.940674,0.176514
25:28.3,0.160645,1.09375,0.170654
25:28.3,0.231934,1.305908,0.17627
25:28.3,0.390869,1.593994,0.153564
25:28.3,0.547852,1.892578,0.120361
25:28.3,0.670166,2.140869,0.093018
25:28.3,0.838379,2.386475,0.039551
25:28.3,1.004883,2.589844,-0.030762
25:28.3,0.959961,2.581543,-0.145508
25:28.4,0.938232,2.547607,-0.296387
25:28.4,0.822998,2.461182,-0.373291
25:28.4,0.780518,2.390625,-0.460449
25:28.4,0.697021,2.331299,-0.454346
25:28.4,0.501465,2.24585,-0.368164
25:28.4,0.181396,2.124268,-0.265625
25:28.4,-0.160889,1.834473,-0.074707
25:28.4,-0.428467,1.610107,0.009033
25:28.4,-0.655029,1.273438,0.193604
25:28.4,-0.678223,1.110107,0.312988
25:28.5,-0.600586,0.999023,0.424316
25:28.5,-0.562988,0.855225,0.540527
25:28.5,-0.576172,0.753418,0.563721
25:28.5,-0.604736,0.74707,0.518066
25:28.5,-0.744141,0.857178,0.468506
25:28.5,-1.014404,0.890625,0.531006
25:28.5,-1.368896,0.809814,0.483643
25:28.5,-1.895996,0.642578,0.469971
25:28.5,-2.290283,0.201904,0.560059
25:28.5,-2.638184,-0.385986,0.90918
25:28.6,-3.295898,-1.842773,1.697021
25:28.6,-4,-3.40918,2.432373
25:28.6,-4.36792,-4.210205,2.616699
25:28.6,-4.185547,-3.596924,1.958496
25:28.6,-3.800781,-2.359619,1.187012
25:28.6,-3.864502,-0.921143,0.70874
25:28.6,-4.642822,0.476563,0.605225
25:28.6,-6.780029,3.247803,1.242676
25:28.6,-8,6.979736,2.280029
25:28.6,-7.036133,7.999756,5.268311
25:28.7,-2.263428,7.984375,7.475586
25:28.7,1.978271,7.999756,6.05957
25:28.7,1.443848,7.889404,3.099854
25:28.7,0.887207,6.655518,-1.36084
25:28.7,1.65918,4.759033,-3.435791
25:28.7,2.151855,4.167725,-2.628174
25:28.7,1.113525,3.209229,-1.349121
25:28.7,0.213867,2.458496,-0.666016
25:28.7,-0.567871,1.901123,-0.233887
25:28.7,-1.066162,1.331299,0.269775
25:28.8,-1.07959,0.756348,0.733643
25:28.8,-0.927246,0.463867,1.085205
25:28.8,-0.670166,0.230225,1.145752
25:28.8,-0.495117,-0.013672,0.922119
25:28.8,-0.393555,-0.161133,0.632568
25:28.8,-0.299072,-0.219971,0.404297
25:28.8,-0.176025,-0.164307,0.275146
25:28.8,-0.067139,-0.06543,0.230469
25:28.8,0.01123,0.053711,0.199219
25:28.8,0.062744,0.188721,0.143066
25:28.9,0.069824,0.332275,0.123779
25:28.9,0.082031,0.470215,0.147949
25:28.9,0.110596,0.626709,0.16748
25:28.9,0.169434,0.813232,0.167969
25:28.9,0.238281,0.945313,0.1521
25:28.9,0.279053,1.040039,0.124512
25:28.9,0.333496,1.147705,0.051025
25:28.9,0.415527,1.227783,-0.012207
25:28.9,0.452881,1.271973,-0.014648
25:28.9,0.456787,1.29541,0.012695
25:29.0,0.448242,1.295898,0.054932
25:29.0,0.42627,1.260742,0.099121
25:29.0,0.374268,1.203369,0.172119
25:29.0,0.306152,1.12915,0.227051
25:29.0,0.250732,1.046631,0.244385
25:29.0,0.217285,0.978027,0.26123
25:29.0,0.172119,0.91626,0.266602
25:29.0,0.146973,0.851074,0.267822
25:29.0,0.120361,0.798584,0.25708
25:29.0,0.093994,0.75,0.235596
25:29.1,0.10376,0.713867,0.239746
25:29.1,0.10791,0.680908,0.268799
25:29.1,0.116211,0.658691,0.303467
25:29.1,0.144531,0.653076,0.327637
25:29.1,0.179199,0.665771,0.316895
25:29.1,0.198486,0.680176,0.30957
25:29.1,0.213867,0.710449,0.32666
25:29.1,0.229736,0.728027,0.318115
25:29.1,0.247314,0.756348,0.30127
25:29.1,0.250244,0.78833,0.283447
25:29.2,0.25,0.820068,0.282471
25:29.2,0.25,0.851807,0.269531
25:29.2,0.25,0.883545,0.253418
25:29.2,0.25,0.916992,0.23584
25:29.2,0.251221,0.93457,0.234131
25:29.2,0.234619,0.950439,0.235596
25:29.2,0.248535,0.967529,0.220947
25:29.2,0.25,0.96875,0.205078
25:29.2,0.250732,0.967773,0.1875
25:29.2,0.235596,0.98291,0.200928
25:29.3,0.219971,0.999023,0.233398
25:29.3,0.188232,1.014893,0.233887
25:29.3,0.171875,1.031006,0.249756
25:29.3,0.156006,1.03125,0.25
25:29.3,0.15625,1.030518,0.249268
25:29.3,0.155518,0.998535,0.216064
25:29.3,0.13916,0.982178,0.169189
25:29.3,0.122314,0.950928,0.154297
25:29.3,0.091797,0.928711,0.139404
25:29.3,0.091064,0.817871,0.141602
25:29.4,0.059814,0.79126,0.161865
25:29.4,0.063965,0.762451,0.208984
25:29.4,0.081299,0.768311,0.217773
25:29.4,0.094727,0.808594,0.205566
25:29.4,0.097412,0.898682,0.238037
25:29.4,0.134766,1.03833,0.233398
25:29.4,0.186279,1.218018,0.20459
25:29.4,0.254395,1.392822,0.121826
25:29.4,0.33667,1.564941,0.053711
25:29.4,0.40918,1.7146,-0.043457
25:29.5,0.452393,1.837646,-0.110596
25:29.5,0.499268,1.961182,-0.13501
25:29.5,0.55127,2.068848,-0.133789
25:29.5,0.615967,2.147461,-0.072754
25:29.5,0.644775,2.159912,-0.010742
25:29.5,0.618164,2.122803,0.030518
25:29.5,0.569336,2.057617,0.055176
25:29.5,0.489502,2.013672,0.068604
25:29.5,0.423584,1.9646,0.08667
25:29.5,0.34375,1.885742,0.091797
25:29.6,0.263184,1.760254,0.070068
25:29.6,0.149414,1.602295,0.058838
25:29.6,-0.003174,1.421875,0.069824
25:29.6,-0.130859,1.256348,0.07251
25:29.6,-0.199707,1.136719,0.062012
25:29.6,-0.240234,1.057129,0.091797
25:29.6,-0.285645,0.977295,0.151855
25:29.6,-0.344971,0.863525,0.260742
25:29.6,-0.388672,0.744141,0.377197
25:29.6,-0.394531,0.663086,0.434814
25:29.7,-0.417725,0.615479,0.431885
25:29.7,-0.488037,0.648193,0.380859
25:29.7,-0.635498,0.746338,0.359375
25:29.7,-0.900146,0.919434,0.270264
25:29.7,-1.379395,1.037354,0.253174
25:29.7,-1.884521,0.852051,0.412109
25:29.7,-2.177246,0.30835,0.723389
25:29.7,-2.596191,-0.917969,1.225586
25:29.7,-3.066895,-3.016113,1.842529
25:29.7,-3.599121,-4.74585,2.175537
25:29.8,-3.691895,-4.932617,1.842529
25:29.8,-3.249512,-3.927002,0.962402
25:29.8,-3.060791,-2.137451,0.456787
25:29.8,-3.497803,-0.039307,0.454346
25:29.8,-5.023682,2.602051,0.830078
25:29.8,-5.873047,6.168701,1.138916
25:29.8,-4.440674,7.938477,2.590088
25:29.8,-1.198242,7.999756,3.804199
25:29.8,2.177734,7.999756,3.623047
25:29.8,2.660889,7.383789,2.400879
25:29.9,1.992188,5.525391,-0.220703
25:29.9,1.328613,3.726807,-1.732178
25:29.9,1.165283,2.921387,-1.830566
25:29.9,0.993652,2.407471,-1.330566
25:29.9,0.644287,2.090332,-0.645264
25:29.9,0.185059,1.746826,-0.207031
25:29.9,-0.233887,1.28833,0.066162
25:29.9,-0.383057,0.891846,0.27002
25:29.9,-0.296631,0.615234,0.431396
25:29.9,-0.176514,0.414063,0.48877
25:30.0,-0.10791,0.242676,0.448975
25:30.0,-0.026855,0.163086,0.271729
25:30.0,0.006348,0.13623,0.082764
25:30.0,0.084229,0.191162,0.016113
25:30.0,0.120605,0.267822,0.042969
25:30.0,0.154053,0.378906,0.060547
25:30.0,0.15625,0.463135,0.074951
25:30.0,0.154297,0.496338,0.121826
25:30.0,0.200684,0.55835,0.153564
25:30.0,0.23291,0.637939,0.217041
25:30.1,0.280762,0.718018,0.249756
25:30.1,0.312988,0.782227,0.233398
25:30.1,0.344482,0.846191,0.153076
25:30.1,0.361328,0.9104,0.090088
25:30.1,0.409668,0.972656,0.043213
25:30.1,0.439941,1.003418,0.012939
25:30.1,0.456299,1.0354,0
25:30.1,0.487793,1.065918,0.020264
25:30.1,0.501221,1.079346,0.071777
25:30.1,0.498047,1.076416,0.13501
25:30.2,0.48291,1.059326,0.181396
25:30.2,0.482422,1.041016,0.229248
25:30.2,0.465088,1.01001,0.274902
25:30.2,0.446533,0.99585,0.302979
25:30.2,0.415771,0.97998,0.314209
25:30.2,0.400879,0.964111,0.312012
25:30.2,0.391602,0.948242,0.316406
25:30.2,0.408203,0.932617,0.323975
25:30.2,0.40625,0.916748,0.290283
25:30.2,0.405518,0.900146,0.27417
25:30.3,0.410889,0.88916,0.231201
25:30.3,0.422363,0.888672,0.171875
25:30.3,0.391602,0.861328,0.14209
25:30.3,0.349609,0.813965,0.124023
25:30.3,0.33374,0.784668,0.147461
25:30.3,0.300049,0.751953,0.159424
25:30.3,0.267334,0.725586,0.1521
25:30.3,0.242432,0.710938,0.132813
25:30.3,0.220947,0.700684,0.122559
25:30.3,0.198486,0.70166,0.125
25:30.4,0.20166,0.706055,0.126221
25:30.4,0.207764,0.730225,0.121582
25:30.4,0.225586,0.762451,0.097412
25:30.4,0.241455,0.800293,0.063721
25:30.4,0.25708,0.851563,0.028809
25:30.4,0.269531,0.890137,0.01123
25:30.4,0.301025,0.928223,0.017334
25:30.4,0.343506,0.971924,0.008057
25:30.4,0.38208,0.99585,-0.003662
25:30.4,0.421631,1.001953,0.007568
25:30.5,0.463135,1,0.015381
25:30.5,0.49585,1,0.019531
25:30.5,0.512207,1,0.043457
25:30.5,0.515137,0.997803,0.087158
25:30.5,0.478516,1.008545,0.129639
25:30.5,0.427734,1.01709,0.154785
25:30.5,0.376221,1.017822,0.14624
25:30.5,0.349854,1.006104,0.150635
25:30.5,0.320801,0.998535,0.157227
25:30.5,0.319336,1,0.109375
25:30.6,0.326904,1,0.039795
25:30.6,0.340332,0.997559,-0.017334
25:30.6,0.33667,1.010254,-0.042725
25:30.6,0.318604,1.014404,-0.05835
25:30.6,0.302979,1.019287,-0.063477
25:30.6,0.284912,1.058105,-0.064697
25:30.6,0.277832,1.100586,-0.05127
25:30.6,0.283447,1.184326,-0.048096
25:30.6,0.32373,1.263184,-0.039551
25:30.6,0.445801,1.374512,-0.006836
25:30.7,0.60376,1.517334,0.005615
25:30.7,0.768799,1.654541,-0.021973
25:30.7,0.895996,1.753418,-0.04248
25:30.7,0.977295,1.77002,-0.057861
25:30.7,0.98291,1.766113,-0.07373
25:30.7,0.912598,1.673584,-0.087646
25:30.7,0.831787,1.543457,-0.11499
25:30.7,0.752441,1.441406,-0.1604
25:30.7,0.673096,1.357178,-0.21167
25:30.7,0.5979,1.307129,-0.240234
25:30.8,0.479004,1.24585,-0.174072
25:30.8,0.320068,1.184326,-0.074707
25:30.8,0.1875,1.092773,0.15918
25:30.8,0.088623,0.984131,0.31665
25:30.8,0.011719,0.841064,0.373535
25:30.8,-0.140869,0.722412,0.364258
25:30.8,-0.361816,0.730469,0.255859
25:30.8,-0.595947,0.839844,0.157227
25:30.8,-1.150146,0.953613,0.186279
25:30.8,-1.931396,0.71167,0.394287
25:30.9,-2.350586,0.068848,0.656982
25:30.9,-3.054443,-1.37915,1.252441
25:30.9,-3.567627,-3.528076,2.228271
25:30.9,-3.861084,-4.775146,2.824219
25:30.9,-3.826172,-4.301514,2.314697
25:30.9,-3.522705,-2.838379,1.539307
25:30.9,-3.224365,-0.749756,0.815186
25:30.9,-4.077881,1.038574,0.773193
25:30.9,-5.590332,3.543701,1.048584
25:30.9,-5.704834,6.854248,1.754883
25:31.0,-3.099854,7.999756,3.233887
25:31.0,1.091309,7.993164,3.262939
25:31.0,3.058105,7.963379,2.30542
25:31.0,2.419678,7.189697,0.088623
25:31.0,1.8125,5.127686,-2.248047
25:31.0,1.153809,4.021729,-2.108643
25:31.0,0.688232,3.05249,-1.04248
25:31.0,0.145264,2.333008,0.089844
25:31.0,-0.408447,1.669189,0.552246
25:31.0,-0.598145,0.966797,0.599365
25:31.1,-0.506836,0.57373,0.549805
25:31.1,-0.320068,0.371338,0.465576
25:31.1,-0.165771,0.19458,0.30957
25:31.1,0.020996,0.06543,0.117676
25:31.1,0.132813,0.039307,-0.028809
25:31.1,0.174805,0.074707,-0.091309
25:31.1,0.19873,0.137451,-0.050293
25:31.1,0.203613,0.220947,-0.020752
25:31.1,0.172852,0.299561,-0.016113
25:31.1,0.112061,0.376953,-0.006104
25:31.2,0.051758,0.455811,0.032715
25:31.2,0.05249,0.579834,0.052734
25:31.2,0.132324,0.740967,0.041748
25:31.2,0.228027,0.875244,0.028809
25:31.2,0.297607,0.995361,-0.004395
25:31.2,0.358398,1.090576,-0.093506
25:31.2,0.427002,1.157715,-0.169678
25:31.2,0.464844,1.226318,-0.218506
25:31.2,0.488525,1.259521,-0.241943
25:31.2,0.497559,1.249756,-0.190186
25:31.3,0.482422,1.209473,-0.079346
25:31.3,0.438965,1.132568,-0.001709
25:31.3,0.379639,1.050049,0.05127
25:31.3,0.32959,0.980225,0.100342
25:31.3,0.302979,0.918945,0.119385
25:31.3,0.278809,0.855957,0.135742
25:31.3,0.253174,0.788574,0.141846
25:31.3,0.248535,0.742676,0.142822
25:31.3,0.247559,0.723877,0.128174
25:31.3,0.26001,0.709473,0.12915
25:31.4,0.264404,0.689209,0.160156
25:31.4,0.273682,0.692139,0.186768
25:31.4,0.290527,0.725586,0.177734
25:31.4,0.308594,0.733887,0.168457
25:31.4,0.311035,0.743164,0.180664
25:31.4,0.32373,0.759766,0.199463
25:31.4,0.328857,0.775635,0.206055
25:31.4,0.32373,0.789307,0.193359
25:31.4,0.354004,0.819092,0.177002
25:31.4,0.348389,0.839355,0.158936
25:31.5,0.347168,0.856445,0.155518
25:31.5,0.318604,0.859619,0.160156
25:31.5,0.311523,0.859375,0.130615
25:31.5,0.3125,0.859375,0.124023
25:31.5,0.314209,0.857422,0.123047
25:31.5,0.300781,0.87085,0.138184
25:31.5,0.284424,0.885498,0.142334
25:31.5,0.268555,0.913818,0.128174
25:31.5,0.251465,0.959961,0.113525
25:31.5,0.248535,1.009033,0.082031
25:31.6,0.262207,1.044434,0.065674
25:31.6,0.293701,1.046875,0.035889
25:31.6,0.310791,1.047607,-0.010742
25:31.6,0.327881,1.032471,-0.060547
25:31.6,0.3125,1.016357,-0.0625
25:31.6,0.327637,1,-0.062744
25:31.6,0.328125,1.015381,-0.046875
25:31.6,0.312256,1.031494,-0.030762
25:31.6,0.312988,1.063965,-0.014404
25:31.6,0.34668,1.114014,0.017578
25:31.7,0.411621,1.211914,0.050293
25:31.7,0.477295,1.327148,0.095215
25:31.7,0.576904,1.490479,0.076172
25:31.7,0.704346,1.664307,0.057373
25:31.7,0.789795,1.802734,0.008301
25:31.7,0.802979,1.90625,-0.015137
25:31.7,0.852051,1.968262,0.022217
25:31.7,0.878174,2.044189,0.053467
25:31.7,0.876465,2.05957,0.053711
25:31.7,0.86499,2.00415,-0.036133
25:31.8,0.769043,1.95166,-0.112305
25:31.8,0.634521,1.865723,-0.13916
25:31.8,0.48291,1.768311,-0.077637
25:31.8,0.308594,1.676025,-0.006592
25:31.8,0.190918,1.60376,0.056641
25:31.8,0.118408,1.537354,0.085449
25:31.8,-0.028809,1.425049,0.216553
25:31.8,-0.122803,1.288574,0.323975
25:31.8,-0.174805,1.160889,0.364258
25:31.8,-0.258545,0.960205,0.427002
25:31.9,-0.418213,0.765869,0.505127
25:31.9,-0.612061,0.599121,0.625
25:31.9,-0.831055,0.512695,0.678223
25:31.9,-1.047119,0.429199,0.658447
25:31.9,-1.315918,0.315186,0.713379
25:31.9,-1.611084,0.182617,0.789795
25:31.9,-1.875488,-0.049316,0.905518
25:31.9,-2.308594,-0.94873,1.146484
25:31.9,-2.941406,-2.779785,1.321289
25:31.9,-3.25708,-4.184326,1.32666
25:32.0,-3.260986,-4.407715,1.220215
25:32.0,-3.019287,-3.624512,0.938232
25:32.0,-2.887207,-1.977051,0.642578
25:32.0,-3.511963,-0.281494,0.604004
25:32.0,-5.083008,1.789795,0.758789
25:32.0,-6.157715,5.112793,0.828125
25:32.0,-4.838379,7.703125,1.62207
25:32.0,-1.429443,7.999756,2.483887
25:32.0,1.641846,7.999756,3.083984
25:32.0,2.529785,7.70752,2.61084
25:32.1,2.163086,6.355225,0.034912
25:32.1,1.71875,4.832275,-1.748291
25:32.1,1.282959,3.640381,-1.691895
25:32.1,0.84668,2.873779,-0.905762
25:32.1,0.234375,2.347168,-0.121338
25:32.1,-0.337646,1.634277,0.2771
25:32.1,-0.566406,0.972656,0.450928
25:32.1,-0.495605,0.638672,0.518066
25:32.1,-0.329346,0.429443,0.530518
25:32.1,-0.177734,0.265869,0.429688
25:32.2,-0.040771,0.133789,0.176758
25:32.2,0.051025,0.095703,-0.000732
25:32.2,0.131592,0.131592,-0.015137
25:32.2,0.192139,0.211182,0.014648
25:32.2,0.221436,0.252441,0.074707
25:32.2,0.200195,0.309814,0.113525
25:32.2,0.168457,0.350342,0.160156
25:32.2,0.120361,0.372314,0.187744
25:32.2,0.089111,0.449707,0.17749
25:32.2,0.125,0.572266,0.162598
25:32.3,0.174561,0.699951,0.135742
25:32.3,0.220215,0.828613,0.090576
25:32.3,0.28125,0.943848,0.040771
25:32.3,0.344971,1.042969,0.003418
25:32.3,0.413086,1.127197,-0.003418
25:32.3,0.436279,1.182861,0.027588
25:32.3,0.438721,1.189209,0.027588
25:32.3,0.425537,1.174316,0.071533
25:32.3,0.393799,1.158203,0.107178
25:32.3,0.378418,1.144043,0.109375
25:32.4,0.331055,1.097412,0.108643
25:32.4,0.313965,1.065674,0.124268
25:32.4,0.282715,1.002197,0.125977
25:32.4,0.250244,0.969727,0.078613
25:32.4,0.249756,0.906006,0.078125
25:32.4,0.218262,0.85791,0.093994
25:32.4,0.218262,0.810059,0.110107
25:32.4,0.201904,0.762695,0.126709
25:32.4,0.186523,0.731201,0.15918
25:32.4,0.188477,0.700195,0.190186
25:32.5,0.204102,0.686279,0.205322
25:32.5,0.202881,0.688477,0.218262
25:32.5,0.206055,0.707275,0.203125
25:32.5,0.23877,0.738281,0.221924
25:32.5,0.253174,0.75708,0.236328
25:32.5,0.269287,0.805176,0.230469
25:32.5,0.282471,0.837891,0.195068
25:32.5,0.283447,0.887939,0.165771
25:32.5,0.301514,0.929932,0.151855
25:32.5,0.314697,0.942383,0.135986
25:32.6,0.30957,0.955078,0.119629
25:32.6,0.291748,0.953125,0.107178
25:32.6,0.275391,0.953125,0.109375
25:32.6,0.263428,0.953613,0.109375
25:32.6,0.266357,0.948975,0.110107
25:32.6,0.262207,0.93335,0.103271
25:32.6,0.243164,0.945313,0.099365
25:32.6,0.23291,0.97583,0.13208
25:32.6,0.229492,0.994141,0.152588
25:32.6,0.216309,1.03125,0.174072
25:32.7,0.217529,1.048584,0.18335
25:32.7,0.224121,1.020508,0.203369
25:32.7,0.236572,0.986572,0.180664
25:32.7,0.235596,0.955078,0.165039
25:32.7,0.228271,0.923584,0.147705
25:32.7,0.217773,0.89209,0.136719
25:32.7,0.212158,0.860596,0.148438
25:32.7,0.199219,0.825928,0.15332
25:32.7,0.208252,0.804688,0.133057
25:32.7,0.224365,0.81958,0.119141
25:32.8,0.247314,0.865967,0.094482
25:32.8,0.278809,0.946045,0.070313
25:32.8,0.316162,1.046387,0.045166
25:32.8,0.369141,1.175781,0.029297
25:32.8,0.446045,1.361084,0.025146
25:32.8,0.5625,1.581299,0.009521
25:32.8,0.683594,1.803467,-0.018555
25:32.8,0.800537,1.97583,-0.030273
25:32.8,0.884033,2.10376,-0.048828
25:32.8,0.89502,2.172119,-0.065674
25:32.9,0.845215,2.167725,-0.069092
25:32.9,0.766357,2.140625,-0.038574
25:32.9,0.751709,2.151611,0.007813
25:32.9,0.792725,2.20874,0.025146
25:32.9,0.739502,2.216064,-0.014404
25:32.9,0.56543,2.144043,-0.046387
25:32.9,0.378418,2.015625,0.009521
25:32.9,0.2146,1.862061,0.086914
25:32.9,0.057373,1.689941,0.219238
25:32.9,-0.025635,1.526611,0.239502
25:33.0,-0.093018,1.369629,0.264893
25:33.0,-0.188965,1.216309,0.297363
25:33.0,-0.256592,1.02832,0.281494
25:33.0,-0.335693,0.862061,0.299805
25:33.0,-0.455566,0.782471,0.327148
25:33.0,-0.677979,0.730713,0.393799
25:33.0,-0.883789,0.607178,0.501221
25:33.0,-1.131104,0.542236,0.499756
25:33.0,-1.570557,0.541504,0.513916
25:33.0,-1.965088,0.215332,0.689453
25:33.1,-2.354004,-0.447998,0.92749
25:33.1,-2.89209,-1.644531,1.275879
25:33.1,-3.600342,-3.056152,1.685059
25:33.1,-3.979492,-3.74292,1.864014
25:33.1,-3.803223,-3.448486,1.266846
25:33.1,-3.578857,-2.896484,0.829346
25:33.1,-3.88916,-1.979004,0.532959
25:33.1,-4.876953,-0.703369,0.493896
25:33.1,-6.63208,1.902832,0.8479
25:33.1,-7.960449,5.353516,1.721924
25:33.2,-8,7.932129,4.033936
25:33.2,-4.549072,7.984375,6.049316
25:33.2,0.834717,7.984375,5.533936
25:33.2,1.969482,7.967529,2.255615
25:33.2,1.858643,6.868164,-2.039551
25:33.2,1.882324,5.385986,-2.406494
25:33.2,1.160889,3.92041,-1.022705
25:33.2,0.03125,2.833496,0.28418
25:33.2,-0.848877,1.69873,0.758789
25:33.2,-1.022461,0.845459,0.978271
25:33.3,-0.817139,0.466064,0.982422
25:33.3,-0.510742,0.370117,0.70752
25:33.3,-0.270752,0.299561,0.38208
25:33.3,0.008301,0.286621,0.216064
25:33.3,0.172607,0.352783,0.114014
25:33.3,0.236084,0.363281,0.033447
25:33.3,0.269287,0.379639,0.026367
25:33.3,0.244141,0.393066,0.012939
25:33.3,0.200928,0.387207,0.018799
25:33.3,0.115234,0.372314,0.032715
25:33.4,0.03833,0.375977,0.032227
25:33.4,-0.016357,0.403076,0.062988
25:33.4,-0.037109,0.483154,0.125488
25:33.4,-0.025879,0.608643,0.14917
25:33.4,0.018555,0.755371,0.160156
25:33.4,0.085205,0.900146,0.149658
25:33.4,0.153076,1.028809,0.106689
25:33.4,0.236572,1.112549,0.064941
25:33.4,0.306152,1.188721,0.065186
25:33.4,0.348389,1.227783,0.07666
25:33.5,0.356445,1.219971,0.0896
25:33.5,0.310059,1.215576,0.149658
25:33.5,0.259033,1.190186,0.220703
25:33.5,0.215088,1.165527,0.258789
25:33.5,0.198486,1.13623,0.25
25:33.5,0.20459,1.10083,0.254639
25:33.5,0.197754,1.075928,0.232666
25:33.5,0.179932,1.024414,0.186035
25:33.5,0.166016,0.979004,0.155029
25:33.5,0.141113,0.924561,0.128906
25:33.6,0.115234,0.857666,0.119141
25:33.6,0.097412,0.800537,0.136719
25:33.6,0.099854,0.763428,0.176025
25:33.6,0.111084,0.731689,0.184814
25:33.6,0.107178,0.706543,0.210449
25:33.6,0.115723,0.701172,0.24585
25:33.6,0.135254,0.700928,0.262451
25:33.6,0.139893,0.709717,0.258057
25:33.6,0.147461,0.724854,0.246094
25:33.6,0.164795,0.747803,0.25708
25:33.7,0.182861,0.790283,0.278809
25:33.7,0.186523,0.839111,0.274902
25:33.7,0.19751,0.88623,0.256592
25:33.7,0.204346,0.935791,0.240723
25:33.7,0.203125,0.975098,0.225098
25:33.7,0.203125,0.994629,0.209229
25:33.7,0.203125,1.011719,0.191162
25:33.7,0.203125,1.016357,0.184082
25:33.7,0.203125,1.015625,0.200928
25:33.7,0.20752,1.015625,0.190186
25:33.8,0.181885,1.010986,0.200439
25:33.8,0.160645,1.039063,0.191895
25:33.8,0.143555,1.048096,0.188965
25:33.8,0.137939,1.046875,0.177246
25:33.8,0.146729,1.050781,0.160889
25:33.8,0.192383,1.023438,0.14502
25:33.8,0.215088,1.005615,0.131104
25:33.8,0.233887,0.977051,0.100342
25:33.8,0.224854,0.943359,0.076416
25:33.8,0.193115,0.925049,0.103027
25:33.9,0.17334,0.90332,0.121826
25:33.9,0.170166,0.94165,0.137451
25:33.9,0.18457,1.00293,0.156006
25:33.9,0.198242,1.077637,0.140869
25:33.9,0.239014,1.197021,0.154785
25:33.9,0.344238,1.382813,0.156982
25:33.9,0.487549,1.590332,0.142822
25:33.9,0.601074,1.783936,0.110352
25:33.9,0.713867,1.946045,0.109619
25:33.9,0.794678,2.060059,0.09375
25:34.0,0.874756,2.124756,0.109131
25:34.0,0.85791,2.092529,0.093506
25:34.0,0.76123,2.010254,0.093506
25:34.0,0.664063,1.866211,0.094727
25:34.0,0.535889,1.755371,0.126953
25:34.0,0.424805,1.644775,0.142334
25:34.0,0.31543,1.548584,0.158447
25:34.0,0.237549,1.437744,0.17041
25:34.0,0.160889,1.339844,0.133301
25:34.0,0.117676,1.213623,0.088135
25:34.1,0.085693,1.119385,0.071045
25:34.1,0.032715,1.004395,0.02124
25:34.1,-0.052734,0.87793,0.00293
25:34.1,-0.144775,0.767578,0.055908
25:34.1,-0.202393,0.663574,0.092529
25:34.1,-0.24292,0.61377,0.150879
25:34.1,-0.286133,0.611328,0.159668
25:34.1,-0.417236,0.620117,0.18335
25:34.1,-0.606445,0.590088,0.228027
25:34.1,-0.934326,0.60498,0.240234
25:34.2,-1.482666,0.537354,0.244629
25:34.2,-1.980225,-0.000732,0.260498
25:34.2,-2.538574,-1.291016,0.561279
25:34.2,-2.998535,-3.084717,1.24707
25:34.2,-3.255127,-4.492432,1.778076
25:34.2,-3.395264,-4.528809,1.719482
25:34.2,-3.127441,-3.339844,1.173096
25:34.2,-2.950928,-1.731934,0.868164
25:34.2,-3.497803,0.143066,0.87085
25:34.2,-4.886963,2.473877,1.220947
25:34.3,-5.666016,5.25415,1.72998
25:34.3,-4.40625,7.617676,3.221436
25:34.3,-0.901367,7.999756,4.20459
25:34.3,2.024414,7.932617,2.981445
25:34.3,2.189209,6.919922,0.95874
25:34.3,1.697021,5.063721,-1.354736
25:34.3,1.435059,3.857178,-2.151855
25:34.3,1.254883,3.368408,-1.437256
25:34.3,0.813477,2.852051,-0.462158
25:34.3,0.110596,2.204834,0.178711
25:34.4,-0.295166,1.473877,0.496582
25:34.4,-0.32666,1.048096,0.61377
25:34.4,-0.254395,0.764648,0.597656
25:34.4,-0.183594,0.499756,0.464355
25:34.4,-0.08374,0.306396,0.219971
25:34.4,0.022705,0.23291,-0.041504
25:34.4,0.113037,0.226563,-0.16626
25:34.4,0.166748,0.246094,-0.188965
25:34.4,0.177002,0.294678,-0.135254
25:34.4,0.168945,0.319336,-0.044922
25:34.5,0.131836,0.354492,0.013672
25:34.5,0.082031,0.389648,0.05835
25:34.5,0.030029,0.440674,0.103271
25:34.5,0.001709,0.499023,0.165771
25:34.5,-0.007813,0.589844,0.217773
25:34.5,0.023438,0.729736,0.210205
25:34.5,0.082764,0.85376,0.138916
25:34.5,0.162598,0.953125,0.068604
25:34.5,0.219238,1.037842,0.001953
25:34.5,0.265137,1.106445,-0.039795
25:34.6,0.3125,1.161133,-0.064209
25:34.6,0.364014,1.189941,-0.042969
25:34.6,0.393066,1.171387,-0.011475
25:34.6,0.36792,1.11499,0.032471
25:34.6,0.349365,1.035889,0.084473
25:34.6,0.319336,0.970947,0.107666
25:34.6,0.298584,0.893066,0.105957
25:34.6,0.298096,0.82666,0.132568
25:34.6,0.284668,0.758789,0.165039
25:34.6,0.26709,0.735352,0.195313
25:34.7,0.265381,0.732666,0.239746
25:34.7,0.26416,0.74585,0.302002
25:34.7,0.277588,0.77417,0.370117
25:34.7,0.309326,0.835693,0.376953
25:34.7,0.325684,0.899658,0.346924
25:34.7,0.35791,0.964111,0.315674
25:34.7,0.359863,1.012695,0.267822
25:34.7,0.344238,1.061279,0.235352
25:34.7,0.328125,1.077881,0.203369
25:34.7,0.312012,1.093506,0.155762
25:34.8,0.280029,1.077393,0.139648
25:34.8,0.248535,1.061035,0.106201
25:34.8,0.23291,1.029297,0.044189
25:34.8,0.217041,1.013916,0.045898
25:34.8,0.200928,0.996826,0.028076
25:34.8,0.186279,0.965332,-0.003174
25:34.8,0.185791,0.950439,-0.018066
25:34.8,0.170166,0.93457,-0.033936
25:34.8,0.17334,0.918701,-0.050049
25:34.8,0.192871,0.9021,-0.063965
25:34.9,0.223877,0.891357,-0.0625
25:34.9,0.237793,0.905273,-0.063477
25:34.9,0.256348,0.88916,-0.055176
25:34.9,0.290283,0.887695,-0.004883
25:34.9,0.319336,0.873291,0.024658
25:34.9,0.331055,0.871582,0.055908
25:34.9,0.321533,0.857178,0.09082
25:34.9,0.289307,0.85791,0.140381
25:34.9,0.275146,0.866943,0.188477
25:34.9,0.26416,0.894287,0.231934
25:35.0,0.261963,0.894775,0.263916
25:35.0,0.243164,0.909424,0.282959
25:35.0,0.231934,0.902344,0.256836
25:35.0,0.235352,0.885498,0.219238
25:35.0,0.229248,0.864746,0.16333
25:35.0,0.216309,0.830811,0.10083
25:35.0,0.21875,0.798096,0.066895
25:35.0,0.21875,0.770752,0.055664
25:35.0,0.219971,0.761719,0.040039
25:35.0,0.214111,0.768799,0.019775
25:35.1,0.196045,0.792969,0.025879
25:35.1,0.177002,0.822021,0.052734
25:35.1,0.173096,0.869873,0.040039
25:35.1,0.20166,0.96875,0.025635
25:35.1,0.226318,1.079834,0.041748
25:35.1,0.238281,1.193359,0.077393
25:35.1,0.308838,1.387451,0.108887
25:35.1,0.425293,1.620117,0.140381
25:35.1,0.549072,1.818604,0.181641
25:35.1,0.704346,2.04126,0.168945
25:35.2,0.871826,2.234375,0.126709
25:35.2,0.944092,2.32251,0.123047
25:35.2,0.947754,2.345947,0.120605
25:35.2,0.967773,2.298828,0.144775
25:35.2,0.91626,2.151367,0.150146
25:35.2,0.793701,1.965576,0.147949
25:35.2,0.655762,1.747314,0.116211
25:35.2,0.568359,1.5625,0.025879
25:35.2,0.522705,1.40625,-0.077393
25:35.2,0.413818,1.278076,-0.09375
25:35.3,0.238281,1.102051,-0.000732
25:35.3,0.10791,0.962646,0.060059
25:35.3,-0.05542,0.831299,0.026855
25:35.3,-0.370605,0.745605,-0.174561
25:35.3,-0.813477,0.889404,-0.347656
25:35.3,-1.545654,1.301025,-0.283691
25:35.3,-2.608887,1.110596,-0.137451
25:35.3,-3.151611,0.396729,0.174316
25:35.3,-3.27002,-0.065918,0.511963
25:35.3,-3.456055,-1.4104,1.224854
25:35.4,-3.644531,-3.951416,2.243896
25:35.4,-4.208008,-5.547119,2.505615
25:35.4,-3.976074,-5.730713,2.048584
25:35.4,-3.486328,-4.075195,1.344727
25:35.4,-3.8125,-1.612549,0.674072
25:35.4,-5.705322,0.736328,0.774414
25:35.4,-7.69043,4.74585,0.844971
25:35.4,-7.204102,7.729004,2.5979
25:35.4,-3.635498,7.999756,5.130371
25:35.4,1.390137,7.984375,5.134033
25:35.5,2.162354,7.999756,3.516357
25:35.5,1.779541,6.968994,-0.612549
25:35.5,1.307617,4.723877,-1.950195
25:35.5,1.02417,3.519531,-1.510498
25:35.5,0.416992,2.402344,-0.498779
25:35.5,-0.195313,1.762939,0.289795
25:35.5,-0.635986,1.091309,0.542969
25:35.5,-0.640137,0.498535,0.672119
25:35.5,-0.383789,0.387451,0.716064
25:35.5,-0.160645,0.274902,0.485352
25:35.6,0.044189,0.148438,0.1521
25:35.6,0.182617,0.075195,-0.030273
25:35.6,0.256592,0.095459,-0.131348
25:35.6,0.280762,0.11377,-0.121582
25:35.6,0.246338,0.162354,-0.067383
25:35.6,0.230225,0.192871,0.007813
25:35.6,0.195313,0.224365,0.019043
25:35.6,0.143555,0.26001,0.028564
25:35.6,0.084473,0.328125,-0.003418
25:35.6,0.078125,0.41333,0.002686
25:35.7,0.099609,0.532959,0.014648
25:35.7,0.13501,0.679688,-0.000488
25:35.7,0.190918,0.819824,-0.008545
25:35.7,0.269775,0.940186,-0.055664
25:35.7,0.338867,1.058105,-0.068604
25:35.7,0.432861,1.19165,-0.077881
25:35.7,0.479736,1.255859,-0.054688
25:35.7,0.494629,1.293457,-0.017578
25:35.7,0.521729,1.292969,0.035889
25:35.7,0.510254,1.252197,0.104736
25:35.8,0.464111,1.194336,0.146729
25:35.8,0.401123,1.106201,0.155029
25:35.8,0.35498,1.009277,0.192139
25:35.8,0.310547,0.913574,0.197754
25:35.8,0.294678,0.822021,0.221924
25:35.8,0.289307,0.759277,0.224365
25:35.8,0.247559,0.703613,0.232422
25:35.8,0.196533,0.623535,0.245117
25:35.8,0.149658,0.570557,0.317627
25:35.8,0.147461,0.561279,0.379883
25:35.9,0.181152,0.588623,0.36377
25:35.9,0.19458,0.628906,0.339355
25:35.9,0.210449,0.680176,0.345459
25:35.9,0.229736,0.721924,0.338135
25:35.9,0.22876,0.743896,0.322266
25:35.9,0.222412,0.755615,0.298828
25:35.9,0.198975,0.78125,0.259521
25:35.9,0.1521,0.804688,0.252197
25:35.9,0.130615,0.82666,0.275635
25:35.9,0.116699,0.859863,0.282959
25:36.0,0.098877,0.891357,0.283203
25:36.0,0.092041,0.922852,0.276611
25:36.0,0.091309,0.956543,0.252441
25:36.0,0.102783,0.976563,0.205811
25:36.0,0.11084,1,0.177979
25:36.0,0.109375,1.032959,0.157959
25:36.0,0.106934,1.066895,0.110596
25:36.0,0.116943,1.088379,0.079834
25:36.0,0.131592,1.107422,0.079102
25:36.0,0.160156,1.104492,0.069824
25:36.1,0.18457,1.078125,0.050781
25:36.1,0.188477,1.032471,0.043457
25:36.1,0.185059,0.99292,0.053223
25:36.1,0.200928,0.968994,0.083496
25:36.1,0.192383,0.974854,0.104492
25:36.1,0.186523,0.999512,0.119385
25:36.1,0.180908,1.051025,0.137451
25:36.1,0.219238,1.139893,0.143311
25:36.1,0.252197,1.229736,0.128174
25:36.1,0.308105,1.362305,0.124268
25:36.2,0.372559,1.502441,0.125
25:36.2,0.435791,1.670898,0.126709
25:36.2,0.495605,1.849609,0.115479
25:36.2,0.589111,2.002686,0.085938
25:36.2,0.656494,2.109131,0.050537
25:36.2,0.736328,2.165527,0.049316
25:36.2,0.792236,2.19043,0.021973
25:36.2,0.801025,2.149414,-0.007324
25:36.2,0.760986,2.101074,-0.067871
25:36.2,0.672363,2.052246,-0.128906
25:36.3,0.536377,2.020752,-0.246582
25:36.3,0.318359,1.962646,-0.193115
25:36.3,0.079346,1.82373,-0.142822
25:36.3,-0.160645,1.650879,-0.12915
25:36.3,-0.385986,1.397461,0.026123
25:36.3,-0.531006,1.09375,0.265381
25:36.3,-0.562256,0.853516,0.331787
25:36.3,-0.529541,0.63501,0.561279
25:36.3,-0.5,0.617676,0.289795
25:36.3,-0.532227,0.445068,0.357666
25:36.4,-0.538086,0.454834,0.253662
25:36.4,-0.682617,0.486816,0.17627
25:36.4,-0.973389,0.513184,0.324951
25:36.4,-1.380371,0.626465,0.318604
25:36.4,-1.817383,0.422607,0.194824
25:36.4,-2.469727,-0.388428,0.213379
25:36.4,-3.135986,-2.383545,0.890625
25:36.4,-3.505371,-4.230225,1.661377
25:36.4,-3.76709,-4.774902,2.012207
25:36.4,-3.513428,-3.99292,1.395996
25:36.5,-3.232666,-2.619141,1.14624
25:36.5,-3.231689,-0.725098,0.867432
25:36.5,-4.253906,1.288574,0.942627
25:36.5,-5.97998,3.776855,1.391846
25:36.5,-6.218262,6.893311,1.842773
25:36.5,-3.759521,7.999756,3.178955
25:36.5,0.218994,7.984863,3.575684
25:36.5,1.730713,7.541748,2.647217
25:36.5,1.717529,6.218262,0.905518
25:36.5,1.452637,4.718506,-1.006104
25:36.6,1.045654,3.637939,-1.449463
25:36.6,0.743164,2.884766,-1.121094
25:36.6,0.48291,2.349609,-0.554199
25:36.6,0.171631,1.955322,-0.00415
25:36.6,-0.141846,1.550537,0.237549
25:36.6,-0.288086,1.13623,0.325439
25:36.6,-0.238525,0.855225,0.358643
25:36.6,-0.098633,0.717285,0.330566
25:36.6,0.019287,0.625,0.234131
25:36.6,0.095947,0.567627,0.086182
25:36.7,0.157959,0.596924,-0.03833
25:36.7,0.206543,0.708008,-0.080078
25:36.7,0.237549,0.849121,-0.040283
25:36.7,0.250244,0.97583,0.034424
25:36.7,0.251709,1.13623,0.085693
25:36.7,0.330811,1.362305,0.105469
25:36.7,0.438232,1.576416,0.064941
25:36.7,0.494385,1.736328,0.017578
25:36.7,0.550781,1.822998,-0.035645
25:36.7,0.5979,1.874512,-0.123779
25:36.8,0.636963,1.897705,-0.186768
25:36.8,0.618408,1.930664,-0.226074
25:36.8,0.593262,1.980713,-0.246338
25:36.8,0.535156,1.974854,-0.209717
25:36.8,0.421387,1.927734,-0.121338
25:36.8,0.319824,1.87915,-0.017334
25:36.8,0.226563,1.834229,0.046387
25:36.8,0.125244,1.776611,0.087646
25:36.8,0.062256,1.719482,0.145508
25:36.8,0.015869,1.628662,0.221191
25:36.9,-0.024658,1.48877,0.236328
25:36.9,-0.035156,1.353516,0.191406
25:36.9,-0.021973,1.297119,0.091309
25:36.9,0.054443,1.403076,-0.218506
25:36.9,-0.280273,1.330322,0.263184
25:36.9,-0.498779,1.053223,0.783447
25:36.9,-0.897949,0.859131,0.813721
25:36.9,-0.941162,1.094971,0.64209
25:36.9,-1.305176,1.464844,0.601807
25:36.9,-2.234131,1.541992,0.512207
25:37.0,-3.045166,0.816895,0.533936
25:37.0,-3.544189,-1.15918,1.302979
25:37.0,-4.239014,-3.904541,1.724854
25:37.0,-5.038818,-5.786865,2.315674
25:37.0,-4.658691,-5.286377,1.713623
25:37.0,-4.040039,-4.0354,0.633057
25:37.0,-3.609131,-2.274902,0.018311
25:37.0,-3.834473,-0.555908,-0.185059
25:37.0,-5.218018,1.023438,0.444336
25:37.0,-7.033203,4.171875,1.681396
25:37.1,-6.716553,7.833496,4.8479
25:37.1,-1.598389,7.987793,7.905273
25:37.1,4.445068,7.984375,7.651367
25:37.1,4.712646,7.993652,5.114502
25:37.1,3.250732,6.65332,0.374512
25:37.1,1.893066,4.498047,-0.848633
25:37.1,1.597656,3.851318,0.174072
25:37.1,0.94458,3.167725,1.385254
25:37.1,0.253906,2.582764,1.505859
25:37.1,0.144531,2.054932,1.10791
25:37.2,0.104004,1.7229,0.700195
25:37.2,0.069824,1.474121,0.428223
25:37.2,-0.02417,1.222656,0.20752
25:37.2,-0.230469,1.037842,-0.023193
25:37.2,-0.498779,1.04541,-0.136475
25:37.2,-0.887695,1.236084,-0.077881
25:37.2,-1.567139,1.434326,0.059082
25:37.2,-2.477539,1.352783,0.210449
25:37.2,-3.146973,0.968018,0.11792
25:37.2,-3.548096,0.298584,0.212891
25:37.3,-3.66626,-0.688721,0.463623
25:37.3,-4.299316,-2.695557,0.720215
25:37.3,-4.889648,-5.247803,0.917725
25:37.3,-5.07373,-6.111328,0.878174
25:37.3,-4.647949,-4.855469,0.413574
25:37.3,-4.692383,-3.07666,-0.297119
25:37.3,-5.888916,-1.090088,-0.713379
25:37.3,-7.677979,1.793945,0.151123
25:37.3,-8,6.314209,3.094727
25:37.3,-7.522949,7.999756,6.932617
25:37.4,-2.337158,7.984375,7.999756
25:37.4,3.617676,7.999756,7.145996
25:37.4,3.615723,7.942871,1.880127
25:37.4,2.729004,6.787109,-2.746094
25:37.4,2.896484,5.664795,-2.634766
25:37.4,2.664063,5.465332,-0.737061
25:37.4,0.893799,4.113281,0.409668
25:37.4,-0.454346,3.095703,0.688965
25:37.4,-0.784424,2.42334,1.162109
25:37.4,-0.782715,1.686523,1.242188
25:37.5,-0.645508,1.106445,0.933838
25:37.5,-0.481445,0.755859,0.543213
25:37.5,-0.38916,0.539551,0.129639
25:37.5,-0.322021,0.5,-0.28125
25:37.5,-0.336182,0.539063,-0.508301
25:37.5,-0.50708,0.681396,-0.522217
25:37.5,-0.933838,0.935791,-0.4104
25:37.5,-1.673584,1.04126,-0.226074
25:37.5,-2.385742,0.914551,-0.126221
25:37.5,-3.076172,0.259033,-0.080322
25:37.6,-3.689941,-1.531982,0.384033
25:37.6,-4.001953,-3.962891,1.179443
25:37.6,-4.204834,-5.429688,1.682617
25:37.6,-4.043213,-4.996582,1.469482
25:37.6,-3.618164,-3.453125,0.86792
25:37.6,-3.585693,-1.911865,0.223633
25:37.6,-4.660156,-0.107666,0.061523
25:37.6,-6.703857,2.979736,0.935303
25:37.6,-7.762451,7.121338,3.963623
25:37.6,-1.930664,7.999756,7.400391
25:37.7,4.916992,7.984375,6.962158
25:37.7,5.307373,7.999756,3.069824
25:37.7,2.820801,6.811768,-1.121582
25:37.7,1.552734,4.969727,-1.689209
25:37.7,1.026855,4.011475,0.223633
25:37.7,0.334961,3.04541,1.563721
25:37.7,-0.143799,2.150879,1.553223
25:37.7,-0.27417,1.548584,1.130615
25:37.7,-0.2146,1.219727,0.76123
25:37.7,-0.111328,0.989502,0.42749
25:37.8,-0.060059,0.793701,0.197021
25:37.8,-0.095459,0.604248,0.050049
25:37.8,-0.156494,0.525391,-0.128174
25:37.8,-0.228516,0.603271,-0.238525
25:37.8,-0.346191,0.7146,-0.132324
25:37.8,-0.68335,0.826172,-0.019775
25:37.8,-1.120605,0.951172,0.116211
25:37.8,-1.838135,0.891602,0.326172
25:37.8,-2.490967,0.519531,0.4021
25:37.8,-3.303955,-0.95459,0.724365
25:37.9,-3.940674,-3.394287,1.054443
25:37.9,-4.369629,-5.439697,1.034668
25:37.9,-4.298096,-5.348389,0.846436
25:37.9,-3.966309,-4.00293,0.207275
25:37.9,-4.072021,-2.182129,-0.396973
25:37.9,-5.245117,0.088135,-0.027832
25:37.9,-6.773193,3.649658,1.354248
25:37.9,-6.523682,7.999756,4.456055
25:37.9,-0.169678,7.984375,7.999756
25:37.9,6.059814,7.993408,6.426758
25:38.0,5.226318,7.86792,2.871094
25:38.0,2.391113,6.257813,-0.916748
25:38.0,1.054199,4.164551,-1.207764
25:38.0,0.787354,3.473145,0.108154
25:38.0,0.105469,2.487305,1.256348
25:38.0,-0.219238,1.720459,1.214111
25:38.0,-0.271484,1.237305,0.889893
25:38.0,-0.205322,0.893555,0.567139
25:38.0,-0.159424,0.647217,0.290771
25:38.0,-0.097168,0.503174,0.10498
25:38.1,-0.019287,0.550293,-0.102539
25:38.1,-0.127197,0.648926,-0.202148
25:38.1,-0.439697,0.682861,-0.220215
25:38.1,-0.873779,0.654297,-0.129639
25:38.1,-1.327881,0.538574,-0.003906
25:38.1,-1.680908,0.390869,0.009766
25:38.1,-2.038086,0.041748,0.041748
25:38.1,-2.553223,-0.917236,0.159424
25:38.1,-2.960938,-2.477783,0.370361
25:38.1,-3.23584,-4.142822,0.398193
25:38.2,-3.329346,-4.879395,0.246338
25:38.2,-3.149902,-4.192139,-0.001465
25:38.2,-3.106445,-2.994141,-0.383545
25:38.2,-3.623291,-1.356689,-0.352783
25:38.2,-5.00415,0.787842,0.505859
25:38.2,-6.620117,4.467041,2.182617
25:38.2,-5.659424,7.720459,6.001953
25:38.2,0.704102,7.999756,7.999756
25:38.2,6.353271,7.999756,6.159668
25:38.2,5.466797,7.999756,2.06958
25:38.3,2.478027,6.054443,-1.467529
25:38.3,1.243164,4.118164,-1.354004
25:38.3,0.880127,3.612061,0.472412
25:38.3,0.114746,2.546875,1.539063
25:38.3,-0.193604,1.826416,1.384521
25:38.3,-0.180176,1.459229,0.931152
25:38.3,-0.178223,1.169922,0.576416
25:38.3,-0.189209,0.885742,0.305664
25:38.3,-0.216553,0.719238,0.099609
25:38.3,-0.317871,0.720947,-0.125732
25:38.4,-0.602295,0.838867,-0.267822
25:38.4,-1.162842,0.955811,-0.218262
25:38.4,-1.763184,0.848877,-0.018066
25:38.4,-2.228516,0.752441,0.178955
25:38.4,-2.611816,0.514404,0.356445
25:38.4,-2.989746,-0.420898,0.568604
25:38.4,-3.45166,-2.226074,0.746826
25:38.4,-3.78833,-4.129639,0.763916
25:38.4,-3.744385,-4.911621,0.678223
25:38.4,-3.338135,-4.341309,0.233887
25:38.5,-3.108154,-3.166016,-0.158447
25:38.5,-3.460938,-1.730713,-0.431641
25:38.5,-4.551758,0.078613,0.25708
25:38.5,-6.145264,2.906982,1.486572
25:38.5,-6.380859,7.195801,4.05127
25:38.5,-2.584717,7.999756,7.337158
25:38.5,2.263672,7.986084,6.198486
25:38.5,4.545898,7.999756,3.840576
25:38.5,3.745361,6.760254,0.444092
25:38.5,2.324707,4.714355,-1.755859
25:38.6,1.805664,4.116455,-1.414307
25:38.6,1.075928,3.324707,0.053955
25:38.6,0.22168,2.4375,0.824951
25:38.6,-0.204346,1.776855,0.87915
25:38.6,-0.274414,1.304932,0.731689
25:38.6,-0.157227,1.000732,0.531494
25:38.6,-0.03833,0.783203,0.262207
25:38.6,-0.014648,0.662598,0.035889
25:38.6,-0.039063,0.624268,-0.190674
25:38.6,-0.222168,0.668701,-0.324951
25:38.7,-0.537354,0.747559,-0.328857
25:38.7,-1.016113,0.874756,-0.249756
25:38.7,-1.59082,0.64917,-0.027588
25:38.7,-2.022949,0.301758,0.038818
25:38.7,-2.536133,-0.490479,0.30957
25:38.7,-3.02124,-2.126221,0.839844
25:38.7,-3.316895,-3.825195,1.194336
25:38.7,-3.563232,-4.57666,1.144531
25:38.7,-3.265625,-3.985352,0.709717
25:38.7,-2.96875,-2.775635,0.169922
25:38.8,-3.121094,-1.429443,-0.267822
25:38.8,-4.199463,0.301514,0.090332
25:38.8,-5.704834,2.90332,1.307617
25:38.8,-5.955322,6.587646,3.656982
25:38.8,-2.083496,7.999756,6.689453
25:38.8,3.45459,7.989258,6.124756
25:38.8,5.18042,7.999756,3.668945
25:38.8,3.630859,7.318848,-0.22998
25:38.8,2.05835,4.93457,-2.317139
25:38.8,1.487305,4.241211,-0.939697
25:38.9,0.752197,3.4104,0.923096
25:38.9,-0.038574,2.354248,1.468262
25:38.9,-0.307129,1.649414,1.130615
25:38.9,-0.2146,1.301025,0.827881
25:38.9,-0.044434,1.108643,0.627441
25:38.9,0.056152,0.922852,0.44165
25:38.9,0.138672,0.783447,0.259521
25:38.9,0.208496,0.793701,0.068115
25:38.9,0.227051,0.858154,-0.098389
25:38.9,0.077148,0.865479,-0.122314
25:39.0,-0.162354,0.837891,-0.098633
25:39.0,-0.49292,0.817871,-0.04126
25:39.0,-0.910645,0.912842,0.073975
25:39.0,-1.466797,0.867432,0.288818
25:39.0,-2.039307,0.573975,0.471924
25:39.0,-2.355713,0.212891,0.599609
25:39.0,-2.75708,-0.6875,0.798096
25:39.0,-3.270264,-2.388184,1.054932
25:39.0,-3.71167,-4.077637,1.238281
25:39.0,-3.802002,-4.641846,1.0896
25:39.1,-3.345459,-4.041016,0.666992
25:39.1,-3.05835,-2.795654,0.269775
25:39.1,-3.513184,-1.303223,0.118652
25:39.1,-4.956787,0.626953,0.576172
25:39.1,-6.9021,4.46167,1.681152
25:39.1,-6.001709,7.671387,4.327148
25:39.1,-0.266357,7.999756,6.436035
25:39.1,4.656494,7.999756,5.953857
25:39.1,4.851563,7.999756,3.371338
25:39.1,2.066406,5.479736,-0.333252
25:39.2,0.539063,2.821289,-2.183838
25:39.2,0.461426,2.233643,-1.43042
25:39.2,0.209473,1.855469,0.243652
25:39.2,-0.208252,1.200928,0.996582
25:39.2,-0.448486,0.508301,0.891113
25:39.2,-0.42334,0.048096,0.641113
25:39.2,-0.371582,-0.302734,0.397461
25:39.2,-0.344727,-0.624268,0.249023
25:39.2,-0.226074,-0.758545,0.094238
25:39.2,-0.079346,-0.644043,-0.027344
25:39.3,-0.008057,-0.47998,0.009521
25:39.3,0.015869,-0.291748,0.043457
25:39.3,0.010254,-0.136963,0.055176
25:39.3,-0.0271,0.003174,0.087402
25:39.3,-0.104736,0.143555,0.09668
25:39.3,-0.165283,0.296875,0.079102
25:39.3,-0.171143,0.463379,0.08667
25:39.3,-0.193848,0.666748,0.114746
25:39.3,-0.141602,0.971924,0.166992
25:39.3,0.028076,1.279297,0.163818
25:39.4,0.281494,1.582031,0.119385
25:39.4,0.483398,1.733398,0.069824
25:39.4,0.654053,1.804688,0.037598
25:39.4,0.7146,1.843506,-0.010498
25:39.4,0.736328,1.819824,-0.032227
25:39.4,0.69458,1.745605,-0.004395
25:39.4,0.617188,1.619873,0.041748
25:39.4,0.522461,1.507813,0.105469
25:39.4,0.409668,1.380615,0.154785
25:39.4,0.360352,1.252441,0.171875
25:39.5,0.312256,1.140137,0.140381
25:39.5,0.280273,1.028564,0.108398
25:39.5,0.249023,0.948975,0.07666
25:39.5,0.249268,0.869629,0.0625
25:39.5,0.231934,0.806152,0.079346
25:39.5,0.202148,0.743408,0.097412
25:39.5,0.219482,0.696289,0.146973
25:39.5,0.219971,0.651123,0.195313
25:39.5,0.237061,0.63916,0.236328
25:39.5,0.252686,0.641846,0.21875
25:39.6,0.270752,0.663086,0.237549
25:39.6,0.30249,0.712891,0.253662
25:39.6,0.311279,0.767334,0.266846
25:39.6,0.296875,0.869873,0.267334
25:39.6,0.318115,0.98291,0.288086
25:39.6,0.356201,1.129639,0.318848
25:39.6,0.432861,1.358887,0.333252
25:39.6,0.548096,1.571533,0.346924
25:39.6,0.671143,1.800049,0.337158
25:39.6,0.825928,1.959229,0.304932
25:39.7,0.922852,2.09375,0.29126
25:39.7,0.99585,2.177734,0.274658
25:39.7,1.047119,2.168701,0.261475
25:39.7,1.041016,2.122314,0.273682
25:39.7,0.971436,2.050049,0.309082
25:39.7,0.861816,1.966797,0.305176
25:39.7,0.769043,1.902588,0.236084
25:39.7,0.692871,1.840088,0.16333
25:39.7,0.553467,1.717529,0.115479
25:39.7,0.403809,1.577881,0.084473
25:39.8,0.242676,1.417236,0.138916
25:39.8,0.086914,1.249512,0.247559
25:39.8,-0.034912,1.091309,0.327881
25:39.8,-0.111328,0.981934,0.392822
25:39.8,-0.207764,0.858887,0.47876
25:39.8,-0.341797,0.708008,0.545166
25:39.8,-0.455322,0.625,0.525879
25:39.8,-0.566895,0.658691,0.50293
25:39.8,-0.774902,0.743164,0.550293
25:39.8,-1.221191,0.862549,0.595459
25:39.9,-1.887939,0.793945,0.707764
25:39.9,-2.442383,0.005615,0.843994
25:39.9,-3.046143,-1.827637,1.115234
25:39.9,-3.730225,-3.941406,1.703613
25:39.9,-4.175537,-5.127686,2.060303
25:39.9,-4.182861,-4.611328,1.600586
25:39.9,-3.895264,-2.859619,0.8396
25:39.9,-3.911133,-1.219971,0.268311
25:39.9,-4.793213,0.167725,0.150391
25:39.9,-6.581543,2.097168,0.771973
25:40.0,-8,6.28833,2.507568
25:40.0,-6.075195,7.999756,5.50708
25:40.0,-0.243896,7.999756,6.31958
25:40.0,2.820557,7.999756,4.763184
25:40.0,2.699707,7.710449,1.318115
25:40.0,1.904541,5.985107,-1.632813
25:40.0,1.438965,4.704346,-1.751221
25:40.0,1.067383,3.87793,-0.530518
25:40.0,0.264404,3.014648,0.19458
25:40.0,-0.558838,1.917725,0.459229
25:40.1,-0.763428,1.154297,0.653809
25:40.1,-0.610107,0.786133,0.725342
25:40.1,-0.421875,0.505615,0.63208
25:40.1,-0.289551,0.303467,0.344482
25:40.1,-0.133057,0.188232,0.112549
25:40.1,-0.008789,0.147217,0.016113
25:40.1,0.081543,0.117188,0.046143
25:40.1,0.110107,0.085449,0.111328
25:40.1,0.099121,0.053711,0.164795
25:40.1,0.069092,0.015869,0.186035
25:40.2,0.037109,0.040039,0.184814
25:40.2,0.002686,0.068848,0.214355
25:40.2,-0.001221,0.142822,0.229736
25:40.2,0.011475,0.235352,0.273682
25:40.2,0.058838,0.358398,0.337402
25:40.2,0.075195,0.531738,0.388428
25:40.2,0.120117,0.692871,0.390625
25:40.2,0.215088,0.837402,0.390869
25:40.2,0.279785,0.981445,0.375244
25:40.2,0.343994,1.109619,0.359131
25:40.3,0.39209,1.188965,0.327881
25:40.3,0.455566,1.220215,0.344482
25:40.3,0.485352,1.249756,0.359863
25:40.3,0.482666,1.214844,0.358398
25:40.3,0.448486,1.165283,0.342773
25:40.3,0.398438,1.100586,0.341797
25:40.3,0.333496,1.037109,0.301758
25:40.3,0.272705,0.969727,0.20752
25:40.3,0.245117,0.876953,0.186279
25:40.3,0.23291,0.835693,0.206055
25:40.4,0.231934,0.802734,0.224365
25:40.4,0.216553,0.758301,0.255371
25:40.4,0.220947,0.746094,0.269531
25:40.4,0.239014,0.727539,0.285889
25:40.4,0.251953,0.694092,0.299072
25:40.4,0.249268,0.662842,0.294678
25:40.4,0.253906,0.627197,0.272705
25:40.4,0.263916,0.581299,0.241943
25:40.4,0.247803,0.551758,0.232178
25:40.4,0.25,0.518799,0.234375
25:40.5,0.25,0.495361,0.233398
25:40.5,0.251709,0.499023,0.237793
25:40.5,0.242676,0.502686,0.255859
25:40.5,0.20752,0.523438,0.269531
25:40.5,0.169922,0.567139,0.296143
25:40.5,0.125488,0.634766,0.341797
25:40.5,0.092529,0.696533,0.377686
25:40.5,0.075195,0.763672,0.422852
25:40.5,0.112061,0.851807,0.446289
25:40.5,0.150391,0.942627,0.464111
25:40.6,0.170654,1.017578,0.459961
25:40.6,0.191895,1.104248,0.427979
25:40.6,0.185791,1.195801,0.414551
25:40.6,0.192383,1.269043,0.403809
25:40.6,0.20874,1.317627,0.36377
25:40.6,0.233398,1.341064,0.308838
25:40.6,0.259521,1.342041,0.283447
25:40.6,0.275146,1.314697,0.240723
25:40.6,0.288818,1.285156,0.207031
25:40.6,0.26123,1.239746,0.195068
25:40.7,0.216309,1.164795,0.17334
25:40.7,0.184814,1.080322,0.188721
25:40.7,0.161865,1.018555,0.197998
25:40.7,0.143555,0.970703,0.185791
25:40.7,0.143555,0.934814,0.185303
25:40.7,0.167236,0.938477,0.196533
25:40.7,0.209961,1.014648,0.206787
25:40.7,0.318604,1.154297,0.193359
25:40.7,0.423828,1.347412,0.179199
25:40.7,0.550049,1.548584,0.215088
25:40.8,0.677734,1.726074,0.248047
25:40.8,0.779785,1.905029,0.248779
25:40.8,0.858887,2.060791,0.251221
25:40.8,0.89209,2.125732,0.304932
25:40.8,0.880615,2.129639,0.344727
25:40.8,0.885254,2.057373,0.401123
25:40.8,0.831543,1.948975,0.443359
25:40.8,0.743652,1.825928,0.466553
25:40.8,0.610352,1.701172,0.529053
25:40.8,0.480225,1.562744,0.638672
25:40.9,0.331543,1.41748,0.740967
25:40.9,0.246582,1.283447,0.740234
25:40.9,0.211182,1.182617,0.654297
25:40.9,0.178467,1.082764,0.562988
25:40.9,0.161621,1.026855,0.425293
25:40.9,0.136475,0.982178,0.306152
25:40.9,0.084229,0.926025,0.204102
25:40.9,-0.032471,0.81665,0.143799
25:40.9,-0.167236,0.741943,0.150635
25:40.9,-0.374023,0.726318,0.185547
25:41.0,-0.665283,0.658691,0.165039
25:41.0,-1.01416,0.51416,0.269775
25:41.0,-1.33374,0.462158,0.307861
25:41.0,-1.673584,0.37915,0.352783
25:41.0,-2.17627,-0.147705,0.42627
25:41.0,-3.065186,-1.63623,0.611084
25:41.0,-3.650391,-3.385498,0.883057
25:41.0,-4.262695,-4.51123,1.015869
25:41.0,-4.108887,-4.099854,0.841064
25:41.0,-4.194092,-2.93457,0.60083
25:41.1,-4.513428,-1.301025,0.387939
25:41.1,-5.257568,0.667969,0.5625
25:41.1,-6.639893,3.022217,1.317871
25:41.1,-7.322266,6.755371,3.24585
25:41.1,-4.928711,7.999756,5.345703
25:41.1,-0.720947,7.987549,6.741455
25:41.1,1.631104,7.958008,5.408203
25:41.1,2.254395,7.391846,2.765381
25:41.1,1.974854,5.716064,-0.131836
25:41.1,1.646973,4.310547,-1.25415
25:41.2,1.41748,3.797119,-1.015137
25:41.2,0.87207,3.115234,-0.530029
25:41.2,0.124756,2.400635,-0.151611
25:41.2,-0.513184,1.730957,0.181641
25:41.2,-0.760498,1.143555,0.541748
25:41.2,-0.708008,0.727051,0.769287
25:41.2,-0.497559,0.513672,0.763916
25:41.2,-0.297852,0.388916,0.667725
25:41.2,-0.1521,0.280762,0.467041
25:41.2,-0.043701,0.262939,0.185547
25:41.3,0.033447,0.320068,-0.022949
25:41.3,0.128662,0.405029,-0.098389
25:41.3,0.194092,0.44873,-0.071289
25:41.3,0.207031,0.430664,-0.031494
25:41.3,0.165283,0.386963,0.020752
25:41.3,0.110107,0.341797,0.098145
25:41.3,0.104248,0.357422,0.194336
25:41.3,0.119629,0.435059,0.263184
25:41.3,0.151123,0.529297,0.290771
25:41.3,0.158447,0.639404,0.271729
25:41.4,0.153076,0.723633,0.232422
25:41.4,0.162842,0.806641,0.210938
25:41.4,0.214111,0.904785,0.227295
25:41.4,0.276123,0.993896,0.27002
25:41.4,0.313965,1.063232,0.321045
25:41.4,0.345215,1.12793,0.362793
25:41.4,0.372803,1.181396,0.388428
25:41.4,0.37085,1.187256,0.386475
25:41.4,0.351318,1.159912,0.36499
25:41.4,0.3396,1.120361,0.363525
25:41.5,0.305176,1.058594,0.338135
25:41.5,0.262939,1.015381,0.291992
25:41.5,0.230957,0.967773,0.27124
25:41.5,0.208496,0.912598,0.25708
25:41.5,0.196777,0.855713,0.243652
25:41.5,0.166992,0.802734,0.209473
25:41.5,0.155518,0.745117,0.217041
25:41.5,0.14624,0.690674,0.246826
25:41.5,0.13916,0.640137,0.246582
25:41.5,0.140625,0.615723,0.270264
25:41.6,0.140625,0.5896,0.281006
25:41.6,0.140625,0.565186,0.289551
25:41.6,0.140625,0.559082,0.308594
25:41.6,0.140625,0.571045,0.311035
25:41.6,0.140625,0.585449,0.321289
25:41.6,0.140625,0.612793,0.337891
25:41.6,0.140625,0.645264,0.355957
25:41.6,0.140625,0.674561,0.359863
25:41.6,0.142578,0.718262,0.35498
25:41.6,0.128174,0.764404,0.385742
25:41.7,0.120361,0.824219,0.37915
25:41.7,0.14624,0.890137,0.380371
25:41.7,0.180664,0.94043,0.338379
25:41.7,0.199219,0.987549,0.315674
25:41.7,0.216553,1.036865,0.302246
25:41.7,0.218994,1.071045,0.27124
25:41.7,0.22168,1.102539,0.25293
25:41.7,0.190918,1.135742,0.237305
25:41.7,0.187012,1.1521,0.220215
25:41.7,0.186279,1.18457,0.218506
25:41.8,0.200684,1.188721,0.21875
25:41.8,0.216797,1.173584,0.21875
25:41.8,0.232666,1.157715,0.219482
25:41.8,0.248779,1.141113,0.203613
25:41.8,0.26416,1.140137,0.202637
25:41.8,0.295898,1.155273,0.218262
25:41.8,0.327881,1.202881,0.234131
25:41.8,0.375488,1.235107,0.265869
25:41.8,0.391113,1.283203,0.265869
25:41.8,0.407715,1.331055,0.282227
25:41.9,0.440186,1.37915,0.298096
25:41.9,0.472168,1.427734,0.315186
25:41.9,0.501709,1.493652,0.345215
25:41.9,0.501709,1.573975,0.348633
25:41.9,0.543457,1.657959,0.416016
25:41.9,0.661865,1.789307,0.455566
25:41.9,0.766357,1.915527,0.43335
25:41.9,0.800293,2.016846,0.42627
25:41.9,0.772705,2.022949,0.47583
25:41.9,0.690674,1.908936,0.489014
25:42.0,0.547119,1.782227,0.499023
25:42.0,0.457275,1.664063,0.482422
25:42.0,0.364258,1.50415,0.484863
25:42.0,0.293701,1.358154,0.482666
25:42.0,0.251709,1.172607,0.458984
25:42.0,0.196777,0.965088,0.399414
25:42.0,0.112061,0.7854,0.318359
25:42.0,0.040527,0.630127,0.264648
25:42.0,0.002686,0.47998,0.243652
25:42.0,-0.031738,0.36084,0.221191
25:42.1,-0.077637,0.261963,0.16626
25:42.1,-0.098877,0.182373,0.138916
25:42.1,-0.129883,0.127686,0.11499
25:42.1,-0.18335,0.145752,0.050781
25:42.1,-0.229736,0.156006,0.071289
25:42.1,-0.376221,0.158203,0.029053
25:42.1,-0.631348,0.231934,-0.088135
25:42.1,-0.983398,0.330322,-0.161865
25:42.1,-1.328857,0.318848,-0.148438
25:42.1,-1.695313,0.079346,-0.099854
25:42.2,-2.164551,-0.910889,-0.026123
25:42.2,-2.686035,-2.51709,0.325684
25:42.2,-3.304932,-3.959229,1.008057
25:42.2,-3.630859,-4.535889,1.548096
25:42.2,-3.453125,-3.608887,1.390869
25:42.2,-3.289551,-2.10791,1.041504
25:42.2,-3.746582,-0.522461,0.799805
25:42.2,-5.408203,1.53125,0.548828
25:42.2,-7.313965,5.846924,1.025391
25:42.2,-6.041992,7.999756,2.600342
25:42.3,-1.345459,7.999756,4.657471
25:42.3,1.871094,7.999756,5.361572
25:42.3,2.260254,7.851318,3.594727
25:42.3,1.930176,6.611084,0.933105
25:42.3,1.577148,5.182861,-0.581299
25:42.3,1.137695,4.063721,-0.754395
25:42.3,0.696289,3.10498,-0.456787
25:42.3,0.268311,2.36792,-0.182617
25:42.3,-0.231445,1.73999,-0.049561
25:42.3,-0.582764,1.131592,0.172607
25:42.4,-0.593994,0.678711,0.426514
25:42.4,-0.435791,0.451416,0.551758
25:42.4,-0.295166,0.320557,0.605957
25:42.4,-0.168457,0.281738,0.395752
25:42.4,-0.049316,0.266602,0.172363
25:42.4,0.04126,0.267578,0.039307
25:42.4,0.097168,0.324951,-0.014893
25:42.4,0.133057,0.36377,-0.006836
25:42.4,0.157959,0.412842,0.008545
25:42.4,0.135742,0.421387,0.036865
25:42.5,0.104492,0.432373,0.071045
25:42.5,0.056152,0.446777,0.085938
25:42.5,0.032715,0.474121,0.131348
25:42.5,0.030762,0.516113,0.153076
25:42.5,0.03125,0.591064,0.173096
25:42.5,0.026611,0.670898,0.143066
25:42.5,0.069824,0.750488,0.152588
25:42.5,0.106445,0.83252,0.167725
25:42.5,0.108398,0.881104,0.197998
25:42.5,0.121582,0.960938,0.22583
25:42.6,0.15332,0.996338,0.31958
25:42.6,0.169678,1.028076,0.370605
25:42.6,0.201904,1.061279,0.419922
25:42.6,0.202148,1.062744,0.421387
25:42.6,0.233887,1.047363,0.4375
25:42.6,0.234375,1.015625,0.40625
25:42.6,0.234375,0.999268,0.358154
25:42.6,0.233887,0.966797,0.310059
25:42.6,0.217529,0.918457,0.263916
25:42.6,0.202393,0.870605,0.264648
25:42.7,0.203125,0.821533,0.249023
25:42.7,0.203125,0.760498,0.25
25:42.7,0.202881,0.746094,0.249756
25:42.7,0.20459,0.7146,0.25293
25:42.7,0.219971,0.699951,0.2854
25:42.7,0.218506,0.683594,0.300293
25:42.7,0.220703,0.672119,0.313721
25:42.7,0.23584,0.690918,0.314697
25:42.7,0.234375,0.709473,0.329834
25:42.7,0.234619,0.73999,0.328125
25:42.8,0.231201,0.756836,0.328125
25:42.8,0.216553,0.790527,0.328125
25:42.8,0.21875,0.822021,0.328613
25:42.8,0.21875,0.854248,0.324463
25:42.8,0.21875,0.881592,0.310303
25:42.8,0.21875,0.900635,0.313232
25:42.8,0.219482,0.92627,0.30835
25:42.8,0.214355,0.919922,0.294434
25:42.8,0.20166,0.927979,0.296875
25:42.8,0.198242,0.967773,0.297852
25:42.9,0.184082,1.023193,0.293945
25:42.9,0.192383,1.084717,0.269775
25:42.9,0.205322,1.126953,0.244629
25:42.9,0.20166,1.147705,0.213623
25:42.9,0.20874,1.131836,0.149414
25:42.9,0.222412,1.096924,0.103027
25:42.9,0.213867,1.05957,0.062012
25:42.9,0.196045,1.01001,0.028076
25:42.9,0.178711,0.961182,0.014404
25:42.9,0.169678,0.918945,0.045166
25:43.0,0.170166,0.893311,0.068359
25:43.0,0.175293,0.891846,0.096191
25:43.0,0.200439,0.915527,0.145752
25:43.0,0.233887,0.960205,0.204102
25:43.0,0.265381,1.04248,0.253662
25:43.0,0.294922,1.134766,0.285156
25:43.0,0.328369,1.253174,0.296387
25:43.0,0.408203,1.398438,0.313232
25:43.0,0.474365,1.550537,0.33374
25:43.0,0.546387,1.696533,0.321533
25:43.1,0.691895,1.860596,0.306152
25:43.1,0.793945,2.018555,0.281494
25:43.1,0.853027,2.111816,0.250488
25:43.1,0.848877,2.144287,0.202881
25:43.1,0.766113,2.075928,0.183105
25:43.1,0.655273,1.997314,0.189697
25:43.1,0.556152,1.910156,0.177246
25:43.1,0.450439,1.84375,0.168213
25:43.1,0.349365,1.80249,0.179932
25:43.1,0.258301,1.746826,0.208252
25:43.2,0.155029,1.68335,0.158447
25:43.2,0.037109,1.557373,0.138672
25:43.2,-0.116943,1.349854,0.190674
25:43.2,-0.260254,1.118652,0.274658
25:43.2,-0.356689,0.925781,0.312744
25:43.2,-0.399902,0.785645,0.375488
25:43.2,-0.417236,0.678955,0.481445
25:43.2,-0.428223,0.611816,0.517822
25:43.2,-0.448975,0.626465,0.416992
25:43.2,-0.610596,0.683105,0.365967
25:43.3,-0.898193,0.685547,0.321533
25:43.3,-1.30249,0.551758,0.403564
25:43.3,-1.782959,0.219482,0.429932
25:43.3,-2.317871,-0.885498,0.455322
25:43.3,-2.700684,-2.607178,0.728271
25:43.3,-3.28125,-4.231934,1.480957
25:43.3,-3.557373,-4.763428,1.779541
25:43.3,-3.287842,-3.811768,1.333252
25:43.3,-3.105957,-2.265137,1.001709
25:43.3,-3.441895,-0.682617,0.809326
25:43.4,-4.495605,0.831543,0.486816
25:43.4,-5.767578,3.056396,0.697754
25:43.4,-5.826416,6.356445,1.765869
25:43.4,-3.050293,7.961914,3.614746
25:43.4,0.705322,7.985107,3.534424
25:43.4,1.999268,7.642578,2.408936
25:43.4,2.248779,6.557617,0.555908
25:43.4,1.913574,5.219727,-0.752441
25:43.4,1.484131,4.205566,-0.850342
25:43.4,0.823975,3.168213,-0.474365
25:43.5,0.258545,2.441162,-0.082275
25:43.5,-0.210693,1.796387,0.179932
25:43.5,-0.41333,1.212646,0.424072
25:43.5,-0.411865,0.849365,0.547852
25:43.5,-0.272705,0.64917,0.558105
25:43.5,-0.165283,0.497559,0.454834
25:43.5,-0.069092,0.361084,0.276611
25:43.5,0.04126,0.287842,0.160889
25:43.5,0.132813,0.318848,0.096436
25:43.5,0.205811,0.352783,0.09668
25:43.6,0.241211,0.381592,0.133545
25:43.6,0.22876,0.395752,0.169678
25:43.6,0.192383,0.406982,0.214111
25:43.6,0.164307,0.412109,0.213379
25:43.6,0.150879,0.447266,0.184326
25:43.6,0.133301,0.482178,0.180664
25:43.6,0.124268,0.535156,0.143799
25:43.6,0.153564,0.603271,0.118652
25:43.6,0.205322,0.69458,0.09375
25:43.6,0.253662,0.805664,0.051514
25:43.7,0.295898,0.895264,0.037109
25:43.7,0.327637,0.963623,0.035889
25:43.7,0.352051,0.995361,0.07959
25:43.7,0.327881,1.007813,0.12793
25:43.7,0.286865,1.017822,0.182373
25:43.7,0.268066,1.016846,0.244385
25:43.7,0.239014,1.009277,0.2771
25:43.7,0.230469,0.997559,0.28833
25:43.7,0.239258,1,0.305664
25:43.7,0.258789,1,0.314453
25:43.8,0.267578,1.003418,0.310547
25:43.8,0.265625,0.989014,0.317871
25:43.8,0.265625,0.957031,0.33374
25:43.8,0.267334,0.908447,0.359131
25:43.8,0.257568,0.851318,0.384766
25:43.8,0.248047,0.794189,0.400391
25:43.8,0.25,0.743652,0.407959
25:43.8,0.245605,0.720215,0.40625
25:43.8,0.262939,0.725586,0.408203
25:43.8,0.300049,0.733643,0.401611
25:43.9,0.326904,0.743408,0.373047
25:43.9,0.320313,0.751465,0.349121
25:43.9,0.313232,0.747559,0.334961
25:43.9,0.304932,0.754883,0.319336
25:43.9,0.287842,0.78418,0.298828
25:43.9,0.269775,0.807129,0.30542
25:43.9,0.266602,0.821533,0.315918
25:43.9,0.255127,0.837158,0.304199
25:43.9,0.248779,0.855225,0.287354
25:43.9,0.247559,0.85791,0.271484
25:44.0,0.260986,0.870361,0.253418
25:44.0,0.268555,0.873535,0.251221
25:44.0,0.256348,0.881836,0.238525
25:44.0,0.237549,0.907715,0.233398
25:44.0,0.233643,0.954102,0.236328
25:44.0,0.234375,0.992432,0.222168
25:44.0,0.234375,1.015381,0.220215
25:44.0,0.234375,1.005615,0.208252
25:44.0,0.234375,0.990723,0.193848
25:44.0,0.238037,0.960205,0.161377
25:44.1,0.210205,0.944824,0.151855
25:44.1,0.190918,0.89917,0.182373
25:44.1,0.175293,0.876221,0.189697
25:44.1,0.156494,0.874756,0.173828
25:44.1,0.168213,0.870605,0.173096
25:44.1,0.181885,0.907471,0.157715
25:44.1,0.224121,1.010498,0.153564
25:44.1,0.296875,1.143066,0.182617
25:44.1,0.428223,1.40332,0.217529
25:44.1,0.692139,1.689941,0.205566
25:44.2,0.953613,1.980469,0.174805
25:44.2,1.086914,2.193115,0.128418
25:44.2,1.200195,2.338867,0.048584
25:44.2,1.265137,2.483154,0.015625
25:44.2,1.265869,2.579346,0.031006
25:44.2,1.29541,2.643799,0.014893
25:44.2,1.193848,2.73584,0.00293
25:44.2,0.974121,2.677246,0.120117
25:44.2,0.568848,2.476563,0.26123
25:44.2,0.20752,2.213623,0.341064
25:44.3,-0.080322,1.89209,0.4729
25:44.3,-0.219971,1.597656,0.614502
25:44.3,-0.291992,1.344482,0.688721
25:44.3,-0.424561,1.005615,0.57959
25:44.3,-0.216064,1.049805,0.434326
25:44.3,-0.479736,0.688232,0.565674
25:44.3,-0.800781,0.264648,0.559814
25:44.3,-0.691895,0.171387,0.41626
25:44.3,-0.608887,0.287109,0.396973
25:44.3,-0.739502,0.218994,0.369385
25:44.4,-0.914795,0.178467,0.348877
25:44.4,-1.127686,0.204834,0.296875
25:44.4,-1.364746,0.288818,0.249756
25:44.4,-1.657471,0.220703,0.240723
25:44.4,-1.984619,-0.190918,0.290283
25:44.4,-2.381592,-0.943848,0.307617
25:44.4,-2.793213,-1.916992,0.333496
25:44.4,-3.345703,-2.833496,0.326172
25:44.4,-3.7229,-3.307129,0.312256
25:44.4,-3.583252,-3.003418,0.177734
25:44.5,-3.414307,-2.324951,-0.023682
25:44.5,-3.569336,-1.316406,0.017822
25:44.5,-4.083496,0.040527,0.034912
25:44.5,-5.616943,1.995361,0.286621
25:44.5,-7.409424,5.797363,1.389648
25:44.5,-5.733398,7.999756,3.179443
25:44.5,-0.474609,7.999756,4.323975
25:44.5,2.779053,7.630615,4.688721
25:44.5,3.243164,6.583984,4.479004
25:44.5,3.109375,5.879883,2.606445
25:44.6,2.674072,4.979736,0.546387
25:44.6,1.797852,3.860596,-0.066895
25:44.6,0.917236,2.841309,-0.07251
25:44.6,0.384521,2.138428,0.183594
25:44.6,0.047852,1.621582,0.514893
25:44.6,-0.306885,1.041504,0.677002
25:44.6,-0.446045,0.538086,0.717529
25:44.6,-0.35376,0.273926,0.713623
25:44.6,-0.218994,0.154297,0.636719
25:44.6,-0.119629,0.076904,0.425781
25:44.7,-0.024658,0.054199,0.234619
25:44.7,0.064697,0.115234,0.11792
25:44.7,0.127197,0.199951,0.133789
25:44.7,0.154297,0.281006,0.201904
25:44.7,0.164307,0.349609,0.240234
25:44.7,0.132568,0.411377,0.264893
25:44.7,0.076904,0.471924,0.256348
25:44.7,0.048584,0.547852,0.250977
25:44.7,0.041016,0.614746,0.236816
25:44.7,0.064209,0.685547,0.241943
25:44.8,0.093018,0.776611,0.257324
25:44.8,0.149658,0.874512,0.286865
25:44.8,0.207275,0.959717,0.30542
25:44.8,0.228271,1.030518,0.330078
25:44.8,0.256592,1.071045,0.376465
25:44.8,0.278809,1.091309,0.412354
25:44.8,0.281738,1.096191,0.443359
25:44.8,0.28125,1.084961,0.477051
25:44.8,0.282959,1.057861,0.499756
25:44.8,0.27002,1.012695,0.489258
25:44.9,0.253662,0.9646,0.472412
25:44.9,0.237793,0.918701,0.455078
25:44.9,0.225098,0.859131,0.454346
25:44.9,0.180176,0.778564,0.437744
25:44.9,0.145996,0.726807,0.452393
25:44.9,0.114502,0.679443,0.437744
25:44.9,0.080322,0.630615,0.449463
25:44.9,0.078857,0.596436,0.482178
25:44.9,0.0625,0.578857,0.483643
25:44.9,0.07666,0.577393,0.498535
25:45.0,0.091797,0.592285,0.515137
25:45.0,0.139404,0.624023,0.515625
25:45.0,0.156006,0.640137,0.515625
25:45.0,0.156006,0.672119,0.515381
25:45.0,0.156494,0.688232,0.515869
25:45.0,0.172607,0.720459,0.531982
25:45.0,0.187988,0.751709,0.546631
25:45.0,0.1875,0.768066,0.528564
25:45.0,0.1875,0.799561,0.49707
25:45.0,0.1875,0.815918,0.482178
25:45.1,0.185791,0.847656,0.4646
25:45.1,0.171875,0.860596,0.433105
25:45.1,0.19043,0.859375,0.418457
25:45.1,0.206543,0.859375,0.404541
25:45.1,0.220215,0.858643,0.405518
25:45.1,0.218018,0.863525,0.4104
25:45.1,0.223877,0.898438,0.446289
25:45.1,0.25293,0.934082,0.472412
25:45.1,0.255615,0.975098,0.46875
25:45.1,0.287842,0.96582,0.469238
25:45.2,0.302979,0.949219,0.4646
25:45.2,0.312744,0.92627,0.45459
25:45.2,0.284424,0.873779,0.470215
25:45.2,0.236572,0.830322,0.471924
25:45.2,0.207275,0.798584,0.48999
25:45.2,0.173096,0.780029,0.505615
25:45.2,0.155273,0.799805,0.523438
25:45.2,0.175781,0.827881,0.528564
25:45.2,0.197021,0.904541,0.512207
25:45.2,0.270752,1.018066,0.520752
25:45.3,0.38501,1.172119,0.528564
25:45.3,0.477295,1.331787,0.551025
25:45.3,0.570313,1.492188,0.608887
25:45.3,0.675049,1.643311,0.655029
25:45.3,0.773438,1.74292,0.693115
25:45.3,0.818359,1.787354,0.658203
25:45.3,0.794434,1.802734,0.62793
25:45.3,0.718994,1.791504,0.624512
25:45.3,0.666504,1.778809,0.658447
25:45.3,0.608887,1.745361,0.717041
25:45.4,0.518799,1.66333,0.736572
25:45.4,0.42041,1.557373,0.707031
25:45.4,0.328125,1.4375,0.667969
25:45.4,0.265137,1.355225,0.612793
25:45.4,0.286377,1.332031,0.537842
25:45.4,0.334473,1.334473,0.444824
25:45.4,0.27124,1.280029,0.488525
25:45.4,0.061768,1.02417,0.52124
25:45.4,-0.043457,0.86084,0.452393
25:45.4,-0.035156,0.768066,0.43042
25:45.5,-0.072021,0.651123,0.44458
25:45.5,-0.119385,0.5354,0.466309
25:45.5,-0.124756,0.424316,0.467041
25:45.5,-0.077881,0.401855,0.42627
25:45.5,-0.040283,0.398193,0.386719
25:45.5,-0.115234,0.360352,0.377197
25:45.5,-0.285156,0.402832,0.241211
25:45.5,-0.554199,0.727539,0.073486
25:45.5,-0.975098,1.197266,0.119629
25:45.5,-1.751221,0.920166,0.082031
25:45.6,-2.724854,-0.755371,0.219727
25:45.6,-3.276123,-4.109863,-0.10376
25:45.6,-3.382568,-6.139893,-0.005127
25:45.6,-3.177002,-6.093506,0.105957
25:45.6,-3.211426,-4.309814,0.125977
25:45.6,-3.60498,-1.894531,0.207764
25:45.6,-4.671631,0.11084,0.644531
25:45.6,-5.805664,1.923828,1.50293
25:45.6,-6.198486,4.17749,3.000488
25:45.6,-5.006836,6.236084,4.782959
25:45.7,-1.222412,6.391113,4.682373
25:45.7,1.244629,6.561523,3.690186
25:45.7,1.957764,5.72168,1.821045
25:45.7,2.074707,4.858398,-0.01709
25:45.7,2.103027,4.272217,-0.378662
25:45.7,1.83667,3.57959,0.063721
25:45.7,1.194092,2.947266,0.40918
25:45.7,0.500488,2.381104,0.568604
25:45.7,-0.056885,1.900635,0.621094
25:45.7,-0.438477,1.361084,0.669922
25:45.8,-0.577148,0.783447,0.688477
25:45.8,-0.501221,0.363037,0.610352
25:45.8,-0.357666,0.17041,0.498535
25:45.8,-0.229248,0.125977,0.369141
25:45.8,-0.085693,0.241211,0.177979
25:45.8,0.040039,0.37085,0.057861
25:45.8,0.135742,0.533447,0.080322
25:45.8,0.245117,0.72583,0.117188
25:45.8,0.303711,0.895264,0.215576
25:45.8,0.330322,1.000488,0.29126
25:45.9,0.327637,1.099121,0.337891
25:45.9,0.330811,1.25293,0.404541
25:45.9,0.371094,1.47168,0.487305
25:45.9,0.458984,1.729492,0.587646
25:45.9,0.578857,1.955811,0.689209
25:45.9,0.721436,2.090332,0.703369
25:45.9,0.820068,2.141113,0.692139
25:45.9,0.843262,2.179688,0.717529
25:45.9,0.773682,2.160889,0.676758
25:45.9,0.675537,2.090088,0.650635
25:46.0,0.601563,2.023926,0.660889
25:46.0,0.544189,1.9375,0.708008
25:46.0,0.50293,1.851563,0.75708
25:46.0,0.439697,1.780273,0.716797
25:46.0,0.277588,1.623047,0.694824
25:46.0,0.028076,1.407715,0.738525
25:46.0,-0.202881,1.194824,0.705566
25:46.0,-0.333984,0.985596,0.686768
25:46.0,-0.425781,0.81958,0.716309
25:46.0,-0.499268,0.674805,0.701172
25:46.1,-0.620117,0.624023,0.595215
25:46.1,-0.770264,0.755859,0.537109
25:46.1,-1.202637,1.081787,0.532959
25:46.1,-2.231201,1.278809,0.483398
25:46.1,-3.212158,0.900146,0.404541
25:46.1,-3.753174,0.03125,0.33667
25:46.1,-4.254883,-1.508789,0.42334
25:46.1,-5.109863,-4.508545,0.914551
25:46.1,-5.869385,-7.170654,1.461426
25:46.1,-5.80127,-6.779297,0.86084
25:46.2,-5.127197,-4.344482,-0.193115
25:46.2,-5.013428,-2.294922,-0.734131
25:46.2,-6.378174,-0.883301,-0.894531
25:46.2,-7.836182,2.140625,-0.095459
25:46.2,-8,6.704834,2.461426
25:46.2,-8,7.999756,6.680664
25:46.2,-2.896973,7.984375,7.999756
25:46.2,3.784912,7.999756,7.999756
25:46.2,3.806396,7.999756,6.108887
25:46.2,2.53833,6.854004,0.924072
25:46.3,1.571533,4.973389,-0.907471
25:46.3,1.095947,4.134521,0.217773
25:46.3,0.814941,3.521484,1.568604
25:46.3,-0.12085,2.556396,1.870117
25:46.3,-0.849121,1.617432,1.429199
25:46.3,-0.767822,1.114014,1.161865
25:46.3,-0.42627,1.016113,1.123535
25:46.3,-0.128174,0.9729,1.059814
25:46.3,0.041504,0.976563,0.92749
25:46.3,0.221924,1.115967,0.849609
25:46.4,0.371338,1.258301,0.839111
25:46.4,0.4021,1.302246,0.859863
25:46.4,0.354736,1.277832,0.842529
25:46.4,0.339844,1.242188,0.79248
25:46.4,0.362061,1.227051,0.76709
25:46.4,0.326172,1.192383,0.762939
25:46.4,0.287598,1.105469,0.781982
25:46.4,0.270996,1.005371,0.768555
25:46.4,0.244141,0.935059,0.669434
25:46.4,0.197021,0.892334,0.555176
25:46.5,0.165771,0.790283,0.459229
25:46.5,0.106689,0.678223,0.354736
25:46.5,0.040039,0.564209,0.199707
25:46.5,0.006104,0.481445,0.050781
25:46.5,-0.036377,0.405273,-0.052246
25:46.5,-0.128418,0.278809,-0.106445
25:46.5,-0.22583,0.197998,-0.112549
25:46.5,-0.291504,0.07251,-0.052246
25:46.5,-0.355713,-0.040039,0.012451
25:46.5,-0.404297,-0.1521,0.044922
25:46.6,-0.452393,-0.248535,0.108643
25:46.6,-0.484375,-0.328613,0.140625
25:46.6,-0.484619,-0.376465,0.140137
25:46.6,-0.499756,-0.425293,0.123535
25:46.6,-0.484131,-0.506836,0.091064
25:46.6,-0.503906,-0.603271,0.060059
25:46.6,-0.570068,-0.697998,0.044922
25:46.6,-0.63208,-0.776855,0.026855
25:46.6,-0.686035,-0.852295,-0.027344
25:46.6,-0.821045,-0.882568,-0.123291
25:46.7,-0.962891,-0.926758,-0.183838
25:46.7,-1.094727,-0.911621,-0.252441
25:46.7,-1.307861,-0.899902,-0.3396
25:46.7,-1.650879,-1.235107,-0.348633
25:46.7,-2.053467,-1.732178,-0.389648
25:46.7,-2.39624,-2.076904,-0.481689
25:46.7,-2.609131,-2.029297,-0.549561
25:46.7,-2.906982,-1.672119,-0.438232
25:46.7,-3.906982,-0.659424,-0.157471
25:46.7,-5.725586,1.311279,0.7229
25:46.8,-7.940918,4.961426,2.689941
25:46.8,-7.405273,7.999756,5.899658
25:46.8,-2.360352,7.990967,7.999756
25:46.8,2.364258,7.999756,7.095703
25:46.8,3.189941,7.788086,5.088379
25:46.8,3.223389,6.748291,1.409424
25:46.8,2.811523,5.608398,-0.378174
25:46.8,2.209229,4.447021,0.139404
25:46.8,1.349609,3.626221,0.851074
25:46.8,0.208008,2.776123,1.267334
25:46.9,-0.581299,2.02124,1.204346
25:46.9,-0.853271,1.437988,1.086182
25:46.9,-0.787842,1.013428,1.049805
25:46.9,-0.547363,0.852051,0.959717
25:46.9,-0.321045,0.867188,0.897461
25:46.9,-0.049316,0.957764,0.881104
25:46.9,0.195068,1.075684,0.907959
25:46.9,0.295898,1.189697,0.959717
25:46.9,0.333496,1.247314,0.968994
25:46.9,0.364746,1.248291,0.947266
25:47.0,0.335938,1.189453,0.882813
25:47.0,0.225586,1.089111,0.774658
25:47.0,0.119873,0.968994,0.700684
25:47.0,0.072021,0.879883,0.671631
25:47.0,0.086914,0.841553,0.682861
25:47.0,0.138916,0.806885,0.680176
25:47.0,0.165283,0.751465,0.632324
25:47.0,0.140137,0.675537,0.54541
25:47.0,0.114746,0.604492,0.400391
25:47.0,0.109619,0.549805,0.248047
25:47.1,0.052734,0.457764,0.10083
25:47.1,-0.019043,0.3479,-0.015381
25:47.1,-0.095459,0.208252,-0.092529
25:47.1,-0.154785,0.112305,-0.128906
25:47.1,-0.19751,0,-0.107178
25:47.1,-0.262451,-0.099609,-0.090088
25:47.1,-0.291504,-0.166748,-0.035645
25:47.1,-0.317627,-0.217529,-0.005371
25:47.1,-0.334229,-0.26416,0.018799
25:47.1,-0.376709,-0.311523,0.055664
25:47.2,-0.402344,-0.356689,0.065918
25:47.2,-0.416504,-0.418213,0.059082
25:47.2,-0.43457,-0.471924,0.003906
25:47.2,-0.435791,-0.500244,-0.050537
25:47.2,-0.445801,-0.572998,-0.080811
25:47.2,-0.473145,-0.624268,-0.143555
25:47.2,-0.514404,-0.702637,-0.166992
25:47.2,-0.585205,-0.744873,-0.193115
25:47.2,-0.69043,-0.76709,-0.236816
25:47.2,-0.807861,-0.73877,-0.296631
25:47.3,-0.998291,-0.716064,-0.372803
25:47.3,-1.259277,-0.853271,-0.465088
25:47.3,-1.543945,-1.365723,-0.563721
25:47.3,-2.038574,-2.024902,-0.805176
25:47.3,-2.261719,-2.561768,-1.075684
25:47.3,-2.813965,-2.416504,-1.125
25:47.3,-3.848389,-1.401367,-0.879639
25:47.3,-5.850586,0.540039,0.303711
25:47.3,-7.956299,3.984375,2.608887
25:47.3,-8,7.947754,6.96582
25:47.4,-4.045166,7.984375,7.987061
25:47.4,3.185791,7.984375,7.952881
25:47.4,4.109619,7.969971,5.625
25:47.4,3.636719,7.362793,-0.773926
25:47.4,3.08252,5.940186,-1.198975
25:47.4,1.928955,4.761719,1.501465
25:47.4,-0.26709,3.214844,2.149902
25:47.4,-1.31665,2.021729,1.73291
25:47.4,-1.246826,1.23999,1.857666
25:47.4,-0.774902,0.979492,1.625977
25:47.5,-0.334229,0.9729,1.025879
25:47.5,0.023438,1.065186,0.729736
25:47.5,0.226807,1.141357,0.661377
25:47.5,0.298584,1.174561,0.694824
25:47.5,0.309814,1.121338,0.720947
25:47.5,0.212646,0.992676,0.695313
25:47.5,0.000244,0.825928,0.631348
25:47.5,-0.227295,0.642578,0.511475
25:47.5,-0.397705,0.474609,0.408936
25:47.5,-0.414795,0.412109,0.323486
25:47.6,-0.392822,0.364258,0.232422
25:47.6,-0.358398,0.346924,0.182373
25:47.6,-0.408203,0.293457,0.068604
25:47.6,-0.441406,0.25415,0.050537
25:47.6,-0.445557,0.252686,0.014893
25:47.6,-0.510254,0.232666,0.005127
25:47.6,-0.635254,0.129883,0.034668
25:47.6,-0.783936,0.026611,0.035156
25:47.6,-0.891846,-0.055176,0.053223
25:47.6,-1.0625,-0.135254,0.075684
25:47.7,-1.314697,-0.203125,0.060791
25:47.7,-1.578613,-0.395996,-0.001465
25:47.7,-1.802246,-0.705078,-0.074463
25:47.7,-2.026611,-1.052002,-0.188477
25:47.7,-2.256592,-1.535645,-0.229492
25:47.7,-2.533691,-2.023438,-0.225342
25:47.7,-2.858887,-2.381592,-0.181396
25:47.7,-2.984375,-2.328613,-0.160645
25:47.7,-2.919434,-1.960938,-0.326904
25:47.7,-3.095703,-1.752197,-0.515137
25:47.8,-3.386475,-1.39502,-0.623291
25:47.8,-4.052979,-0.904297,-0.758789
25:47.8,-6.000488,0.364746,-0.384033
25:47.8,-7.7854,3.583252,1.467041
25:47.8,-8,7.214355,5.178467
25:47.8,-5.992432,7.999756,7.819824
25:47.8,0.51123,7.984375,7.999756
25:47.8,3.588379,7.999756,6.696045
25:47.8,3.474121,7.919678,1.649658
25:47.8,3.621826,6.975342,-1.638916
25:47.9,3.739502,5.80542,-0.784912
25:47.9,2.524902,4.793457,0.645508
25:47.9,0.587891,3.68335,0.798828
25:47.9,-0.800293,2.560303,0.943604
25:47.9,-1.345215,1.528076,1.38501
25:47.9,-1.111572,0.893799,1.561035
25:47.9,-0.606445,0.805908,1.357422
25:47.9,-0.191406,0.921387,0.974121
25:47.9,0.167969,1.110107,0.629395
25:47.9,0.484863,1.334961,0.488281
25:48.0,0.704102,1.483643,0.490479
25:48.0,0.692871,1.44165,0.523193
25:48.0,0.501953,1.259277,0.463379
25:48.0,0.318604,1.105469,0.385254
25:48.0,0.128906,0.953857,0.375
25:48.0,-0.033691,0.782227,0.354492
25:48.0,-0.21167,0.602051,0.414551
25:48.0,-0.338623,0.460449,0.408936
25:48.0,-0.413086,0.388184,0.307861
25:48.0,-0.433105,0.31958,0.196777
25:48.1,-0.458008,0.304443,0.067383
25:48.1,-0.522949,0.375488,-0.021484
25:48.1,-0.695557,0.461914,-0.061279
25:48.1,-0.967041,0.476563,-0.047119
25:48.1,-1.36377,0.380615,-0.060303
25:48.1,-1.667236,0.157959,-0.080322
25:48.1,-1.79248,-0.247559,-0.023193
25:48.1,-1.794678,-0.661133,0.104004
25:48.1,-1.871826,-1.152588,0.155518
25:48.1,-1.968262,-1.744629,0.140137
25:48.2,-1.9375,-2.049316,0.203857
25:48.2,-2.000732,-2.125732,0.280273
25:48.2,-1.981689,-2.085449,0.145508
25:48.2,-1.922119,-1.845459,-0.07251
25:48.2,-2.019043,-1.734375,-0.098145
25:48.2,-2.347656,-1.470703,-0.13916
25:48.2,-2.99292,-0.624268,-0.039307
25:48.2,-4.456055,0.835938,0.30835
25:48.2,-6.567383,3.855957,1.336914
25:48.2,-7.381348,7.69751,3.361816
25:48.3,-3.243408,7.999756,5.702637
25:48.3,3.302002,7.984375,5.980957
25:48.3,4.303467,7.994873,5.39209
25:48.3,4.508545,7.928955,3.530273
25:48.3,4.536377,7.184326,-0.232178
25:48.3,3.347412,5.801514,-1.574707
25:48.3,1.924316,5.091064,-1.017334
25:48.3,0.583252,4.5896,0.336914
25:48.3,-1.155273,3.547852,1.119141
25:48.3,-1.851074,2.487793,1.425049
25:48.4,-1.577148,1.723145,1.504883
25:48.4,-1.155029,1.138184,1.100342
25:48.4,-0.990723,0.796143,0.277832
25:48.4,-1.560303,0.878174,-0.404297
25:48.4,-2.5896,1.421387,-0.554199
25:48.4,-4.19165,1.456787,-0.317871
25:48.4,-5.419922,-2.007568,0.428223
25:48.4,-5.703369,-7.333008,1.87915
25:48.4,-6.271973,-8,3.01709
25:48.4,-5.870117,-6.857666,2.420166
25:48.5,-5.577148,-2.174316,0.694336
25:48.5,-6.591309,1.672852,0.569824
25:48.5,-8,5.662842,1.718994
25:48.5,-6.568848,7.999756,4.151611
25:48.5,-0.619141,7.999756,5.562012
25:48.5,3.238525,7.999756,4.103271
25:48.5,3.215332,7.420898,1.164795
25:48.5,2.400391,5.720459,-1.644775
25:48.5,1.887451,4.662842,-1.572998
25:48.5,1.537598,3.903076,-0.241699
25:48.6,0.568359,3.011963,0.439697
25:48.6,-0.379883,2.085693,0.518311
25:48.6,-0.812012,1.358887,0.513916
25:48.6,-0.893066,0.733887,0.519287
25:48.6,-0.808838,0.226807,0.47583
25:48.6,-0.685791,-0.050049,0.339355
25:48.6,-0.505127,-0.137451,0.19458
25:48.6,-0.328369,-0.113281,0.105957
25:48.6,-0.239014,-0.027588,0.088379
25:48.6,-0.176514,0.063477,0.140381
25:48.7,-0.138672,0.128418,0.209961
25:48.7,-0.151611,0.202637,0.267334
25:48.7,-0.14917,0.265381,0.297363
25:48.7,-0.131104,0.361084,0.291992
25:48.7,-0.117676,0.459473,0.258545
25:48.7,-0.093262,0.574951,0.250244
25:48.7,-0.054199,0.700684,0.247803
25:48.7,0.009766,0.845215,0.19043
25:48.7,0.127441,0.955566,0.15918
25:48.7,0.242188,1.040771,0.13916
25:48.8,0.370361,1.099365,0.161621
25:48.8,0.467285,1.125244,0.183105
25:48.8,0.513672,1.117188,0.200195
25:48.8,0.513916,1.091797,0.199463
25:48.8,0.439697,1.030029,0.220703
25:48.8,0.399658,0.991943,0.279297
25:48.8,0.357666,0.960938,0.348877
25:48.8,0.292969,0.92749,0.370361
25:48.8,0.253174,0.907715,0.400635
25:48.8,0.249512,0.904541,0.418701
25:48.9,0.24707,0.916016,0.43457
25:48.9,0.275635,0.958008,0.45166
25:48.9,0.308838,1.034912,0.451904
25:48.9,0.325928,1.115723,0.467529
25:48.9,0.341797,1.178955,0.467773
25:48.9,0.358643,1.273438,0.481445
25:48.9,0.359375,1.354004,0.528076
25:48.9,0.358154,1.434326,0.575684
25:48.9,0.405273,1.498291,0.639404
25:48.9,0.437988,1.610107,0.703369
25:49.0,0.58252,1.753662,0.766602
25:49.0,0.741211,1.863525,0.78125
25:49.0,0.831543,1.909912,0.762451
25:49.0,0.825684,1.953125,0.693359
25:49.0,0.772705,1.896484,0.566895
25:49.0,0.674316,1.783936,0.507813
25:49.0,0.579102,1.703613,0.461182
25:49.0,0.47876,1.588379,0.41333
25:49.0,0.331299,1.459473,0.367188
25:49.0,0.191895,1.335693,0.339111
25:49.1,0.088135,1.248047,0.321045
25:49.1,0.012695,1.185791,0.299805
25:49.1,-0.070801,1.103516,0.352783
25:49.1,-0.190918,0.999023,0.388672
25:49.1,-0.340088,0.843506,0.453857
25:49.1,-0.464111,0.673828,0.48999
25:49.1,-0.497314,0.559326,0.52417
25:49.1,-0.518555,0.47168,0.635742
25:49.1,-0.519531,0.398438,0.662354
25:49.1,-0.564209,0.335205,0.619141
25:49.2,-0.660645,0.283691,0.547852
25:49.2,-0.83667,0.278809,0.547119
25:49.2,-1.134033,0.296387,0.498779
25:49.2,-1.486328,0.228027,0.352051
25:49.2,-1.779053,-0.067139,0.283936
25:49.2,-2.129639,-0.513428,0.367188
25:49.2,-2.688965,-1.655762,0.434082
25:49.2,-3.304443,-3.523926,0.313721
25:49.2,-3.717773,-4.740234,0.127686
25:49.2,-3.686279,-4.495605,-0.07959
25:49.3,-3.481689,-3.40625,-0.419434
25:49.3,-3.600342,-1.958984,-0.668457
25:49.3,-4.515625,-0.331543,-0.35083
25:49.3,-6.863525,1.873779,0.761475
25:49.3,-8,6.11792,2.74585
25:49.3,-7.424072,7.999756,6.335938
25:49.3,-2.057129,7.986328,7.999756
25:49.3,2.990234,7.999756,7.388672
25:49.3,3.311523,7.807861,4.816162
25:49.3,2.55957,6.231934,0.844971
25:49.4,2.009277,4.516357,-1.655029
25:49.4,1.940186,3.929932,-1.308838
25:49.4,1.69751,3.55542,-0.103516
25:49.4,0.718994,2.853516,0.512939
25:49.4,-0.268555,2.148193,0.44458
25:49.4,-0.900391,1.392334,0.479492
25:49.4,-1.02124,0.640625,0.712402
25:49.4,-0.729248,0.22583,0.866455
25:49.4,-0.557129,-0.062988,0.831299
25:49.4,-0.446045,-0.293701,0.517578
25:49.5,-0.285156,-0.364502,0.179199
25:49.5,-0.177734,-0.30835,-0.016846
25:49.5,-0.067139,-0.143799,-0.07666
25:49.5,0.010498,-0.007568,-0.032227
25:49.5,0.007568,0.103027,0.049072
25:49.5,-0.003174,0.188721,0.113281
25:49.5,0.009033,0.274902,0.202637
25:49.5,0.027832,0.379883,0.273926
25:49.5,0.025146,0.500732,0.351563
25:49.5,0.053955,0.637695,0.414063
25:49.6,0.144043,0.790527,0.425781
25:49.6,0.213867,0.96582,0.415771
25:49.6,0.288574,1.121338,0.370117
25:49.6,0.374268,1.232422,0.341309
25:49.6,0.418213,1.279785,0.361572
25:49.6,0.427734,1.272217,0.426025
25:49.6,0.386963,1.248779,0.445068
25:49.6,0.340088,1.162598,0.500732
25:49.6,0.275635,1.064697,0.56958
25:49.6,0.242676,0.980469,0.593994
25:49.7,0.18042,0.929688,0.584717
25:49.7,0.14502,0.879883,0.523193
25:49.7,0.111328,0.861084,0.486328
25:49.7,0.109131,0.845459,0.485107
25:49.7,0.109863,0.830078,0.470947
25:49.7,0.094238,0.799072,0.438965
25:49.7,0.093506,0.76709,0.422119
25:49.7,0.093994,0.735107,0.421631
25:49.7,0.0625,0.703125,0.421875
25:49.7,0.046387,0.670898,0.421875
25:49.8,0.030273,0.623047,0.421387
25:49.8,0.014893,0.592041,0.405518
25:49.8,0.016357,0.576416,0.407715
25:49.8,0.032959,0.561523,0.439941
25:49.8,0.048828,0.563477,0.455078
25:49.8,0.064697,0.581787,0.469482
25:49.8,0.080811,0.613037,0.47168
25:49.8,0.096436,0.629395,0.50415
25:49.8,0.114746,0.662354,0.519287
25:49.8,0.143555,0.696533,0.530518
25:49.9,0.142822,0.743408,0.51416
25:49.9,0.157959,0.773438,0.512939
25:49.9,0.15625,0.805176,0.498291
25:49.9,0.156494,0.837402,0.497314
25:49.9,0.153564,0.865967,0.479004
25:49.9,0.135742,0.879639,0.467041
25:49.9,0.119141,0.89624,0.4646
25:49.9,0.107178,0.908936,0.45459
25:49.9,0.109375,0.901367,0.47168
25:49.9,0.110107,0.892334,0.463623
25:50.0,0.106689,0.907471,0.453369
25:50.0,0.083252,0.908691,0.47998
25:50.0,0.053955,0.931396,0.504395
25:50.0,0.039551,0.967529,0.498779
25:50.0,0.027588,0.98877,0.506104
25:50.0,0.035156,0.985352,0.514893
25:50.0,0.053223,0.97876,0.490234
25:50.0,0.070313,0.967529,0.450928
25:50.0,0.081787,0.962646,0.398682
25:50.0,0.073486,0.952148,0.362061
25:50.1,0.05542,0.946777,0.352539
25:50.1,0.039551,0.933594,0.375488
25:50.1,0.023926,0.939209,0.424316
25:50.1,0.004883,0.968994,0.445068
25:50.1,0.001221,1.023926,0.467529
25:50.1,0.026611,1.101563,0.488525
25:50.1,0.067627,1.203857,0.524414
25:50.1,0.109131,1.333008,0.595215
25:50.1,0.185547,1.466797,0.648438
25:50.1,0.30542,1.606689,0.70166
25:50.2,0.459717,1.773682,0.776611
25:50.2,0.627686,1.905762,0.799561
25:50.2,0.798096,2.012695,0.770752
25:50.2,0.959473,2.120605,0.730713
25:50.2,1.030762,2.184082,0.615234
25:50.2,1.029785,2.233398,0.468262
25:50.2,1.056641,2.302734,0.431396
25:50.2,1.063721,2.393066,0.438721
25:50.2,0.946533,2.549805,0.317383
25:50.2,0.665283,2.713135,0.223145
25:50.3,0.165527,2.873291,0.30127
25:50.3,-0.491211,2.840332,0.536133
25:50.3,-1.014893,2.450439,0.837646
25:50.3,-1.266602,1.848145,1.090088
25:50.3,-1.260254,1.297852,1.137451
25:50.3,-1.21582,0.905273,1.007324
25:50.3,-1.220215,0.611816,0.803711
25:50.3,-1.340088,0.407959,0.696045
25:50.3,-1.450928,0.186279,0.608398
25:50.3,-1.63208,0.138184,0.518555
25:50.4,-1.84375,-0.005371,0.476807
25:50.4,-1.991943,-0.315674,0.448975
25:50.4,-2.460938,-1.176758,0.406738
25:50.4,-3.006836,-2.688721,0.343994
25:50.4,-3.477051,-4.278809,0.293213
25:50.4,-3.845703,-4.453613,0.272217
25:50.4,-4.023926,-3.669922,0.02832
25:50.4,-4.21582,-2.176514,-0.344727
25:50.4,-4.420654,-0.742188,-0.362549
25:50.4,-5.095459,1.019531,0.248047
25:50.5,-5.906494,3.05835,1.328857
25:50.5,-6.050781,5.256348,2.961914
25:50.5,-4.744873,7.207031,4.85376
25:50.5,-1.239258,7.446045,5.7146
25:50.5,1.827881,6.731689,4.914307
25:50.5,2.369385,5.72876,3.505371
25:50.5,2.22168,4.889893,0.744141
25:50.5,2.238281,4.152344,-0.200195
25:50.5,1.697021,3.352539,0.316406
25:50.5,0.851074,2.618652,0.697998
25:50.6,0.237061,2.014893,0.963135
25:50.6,-0.145996,1.477539,1.049316
25:50.6,-0.270264,1.058105,1.009277
25:50.6,-0.206787,0.786621,0.907715
25:50.6,-0.061523,0.658691,0.75415
25:50.6,0.030518,0.619629,0.51001
25:50.6,0.126465,0.609375,0.293701
25:50.6,0.216797,0.628662,0.151611
25:50.6,0.257324,0.636719,0.123291
25:50.6,0.261475,0.58252,0.167725
25:50.7,0.20459,0.537354,0.230469
25:50.7,0.141846,0.506592,0.253906
25:50.7,0.098877,0.480469,0.247559
25:50.7,0.068115,0.483887,0.22876
25:50.7,0.043213,0.487061,0.219238
25:50.7,0.043457,0.503662,0.239258
25:50.7,0.027832,0.525146,0.254395
25:50.7,0.037354,0.58374,0.275391
25:50.7,0.073242,0.671631,0.300537
25:50.7,0.105713,0.763672,0.299316
25:50.8,0.132813,0.845703,0.32251
25:50.8,0.146484,0.939941,0.349854
25:50.8,0.16333,1.008057,0.372803
25:50.8,0.175049,1.045898,0.425781
25:50.8,0.168945,1.07959,0.470215
25:50.8,0.145508,1.088623,0.487549
25:50.8,0.110352,1.055908,0.489746
25:50.8,0.084717,1.029785,0.503418
25:50.8,0.069824,0.983887,0.498047
25:50.8,0.060059,0.954834,0.466553
25:50.9,0.060791,0.92334,0.417969
