Time,Accel-X (g), Accel-Y (g), Accel-Z (g)
25:17.7,0.105469,-1.58667,0.201172
25:17.7,0.040039,-1.384277,0.257568
25:17.7,-0.034668,-1.125,0.363525
25:17.7,-0.063965,-0.94751,0.373535
25:17.7,-0.109375,-0.858887,0.296143
25:17.7,-0.094482,-0.874268,0.235107
25:17.7,-0.034424,-0.918457,0.217773
25:17.7,0.024902,-0.995361,0.261719
25:17.7,0.116455,-1.029541,0.309082
25:17.7,0.182373,-1.03418,0.327148
25:17.8,0.200928,-0.990723,0.331543
25:17.8,0.219727,-0.960938,0.288574
25:17.8,0.192871,-0.900391,0.25293
25:17.8,0.17334,-0.864014,0.249268
25:17.8,0.169678,-0.847168,0.248291
25:17.8,0.182861,-0.828369,0.259277
25:17.8,0.196777,-0.83667,0.287598
25:17.8,0.224609,-0.865234,0.320801
25:17.8,0.257813,-0.898438,0.339355
25:17.8,0.278809,-0.923584,0.354248
25:17.9,0.281738,-0.900879,0.371826
25:17.9,0.28125,-0.879639,0.375732
25:17.9,0.283447,-0.86499,0.375
25:17.9,0.27002,-0.847168,0.375
25:17.9,0.266846,-0.844971,0.372559
25:17.9,0.252686,-0.833008,0.383057
25:17.9,0.259033,-0.824463,0.4021
25:17.9,0.269043,-0.835693,0.407471
25:17.9,0.253418,-0.850342,0.410645
25:17.9,0.260254,-0.879883,0.386963
25:18.0,0.257568,-0.893555,0.371826
25:18.0,0.248291,-0.892822,0.375
25:18.0,0.247803,-0.881592,0.375
25:18.0,0.260742,-0.875244,0.375
25:18.0,0.258789,-0.866455,0.372803
25:18.0,0.246094,-0.857422,0.383057
25:18.0,0.259766,-0.859375,0.392334
25:18.0,0.257813,-0.859375,0.388672
25:18.0,0.25708,-0.859375,0.397949
25:18.0,0.260498,-0.859375,0.408203
25:18.1,0.247803,-0.859375,0.40625
25:18.1,0.25,-0.857666,0.407715
25:18.1,0.25,-0.865723,0.399658
25:18.1,0.251465,-0.877197,0.389648
25:18.1,0.243896,-0.875,0.384521
25:18.1,0.231934,-0.875,0.371338
25:18.1,0.23291,-0.875,0.380371
25:18.1,0.239502,-0.875,0.394043
25:18.1,0.252197,-0.875,0.385498
25:18.1,0.25,-0.875,0.372559
25:18.2,0.25,-0.875732,0.375
25:18.2,0.25,-0.869873,0.375
25:18.2,0.25,-0.861816,0.374023
25:18.2,0.25,-0.873291,0.379395
25:18.2,0.25,-0.857178,0.38916
25:18.2,0.25,-0.858643,0.373291
25:18.2,0.25,-0.862305,0.371826
25:18.2,0.25,-0.877197,0.357666
25:18.2,0.25,-0.872559,0.356689
25:18.2,0.249512,-0.855469,0.342041
25:18.3,0.252197,-0.840088,0.343506
25:18.3,0.265137,-0.82666,0.344971
25:18.3,0.248535,-0.826172,0.363281
25:18.3,0.251221,-0.8125,0.396729
25:18.3,0.265381,-0.829102,0.439941
25:18.3,0.248291,-0.827148,0.438965
25:18.3,0.233643,-0.812988,0.470215
25:18.3,0.234375,-0.845215,0.484619
25:18.3,0.234131,-0.891357,0.484131
25:18.3,0.21875,-0.952148,0.483643
25:18.4,0.217529,-0.981689,0.542725
25:18.4,0.261963,-1.056885,0.64502
25:18.4,0.304443,-1.116943,0.814209
25:18.4,0.405518,-1.211182,1.182373
25:18.4,0.557617,-1.249268,1.593262
25:18.4,0.488525,-1.044434,1.830566
25:18.4,0.369629,-0.929443,1.812012
25:18.4,0.371094,-1.059082,1.737793
25:18.4,0.376953,-1.202881,1.63916
25:18.4,0.374512,-1.234131,1.620605
25:18.5,0.286377,-1.149902,1.535889
25:18.5,0.143311,-0.989502,1.489502
25:18.5,0.048828,-0.797852,1.46875
25:18.5,0.002441,-0.755127,1.499268
25:18.5,-0.059326,-0.708496,1.395996
25:18.5,-0.12793,-0.647217,1.208496
25:18.5,-0.610596,-0.665039,1.422607
25:18.5,-0.354004,-0.579346,1.382813
25:18.5,-0.116943,-0.546631,1.027832
25:18.5,-0.252686,-0.514893,1.055908
25:18.6,-0.230713,-0.494141,1.015625
25:18.6,-0.176758,-0.503174,0.870117
25:18.6,-0.131592,-0.539551,0.756348
25:18.6,-0.145508,-0.561279,0.67749
25:18.6,-0.200195,-0.819824,0.712646
25:18.6,-0.533936,-0.582275,0.560547
25:18.6,-0.518311,-0.403076,0.331055
25:18.6,-0.195801,-0.628906,0.333252
25:18.6,-0.104248,-0.675293,0.388428
25:18.6,-0.103516,-0.620361,0.350342
25:18.7,-0.067871,-0.609375,0.318359
25:18.7,-0.042725,-0.592041,0.341553
25:18.7,-0.042969,-0.573975,0.37085
25:18.7,-0.018311,-0.619141,0.380615
25:18.7,0.014648,-0.677002,0.364502
25:18.7,0.042236,-0.743164,0.329102
25:18.7,0.087891,-0.789063,0.296631
25:18.7,0.151123,-0.789063,0.268799
25:18.7,0.186035,-0.833496,0.267822
25:18.7,0.183838,-0.86792,0.287842
25:18.8,0.166992,-0.889893,0.305908
25:18.8,0.179932,-0.943359,0.305908
25:18.8,0.214355,-0.979492,0.303955
25:18.8,0.249023,-0.990234,0.368164
25:18.8,0.305908,-1.005859,0.453613
25:18.8,0.354248,-1.021973,0.550293
25:18.8,0.333984,-1.032471,0.672119
25:18.8,0.315674,-1.03418,0.837402
25:18.8,0.3479,-1.050049,1.004639
25:18.8,0.343018,-1.076416,1.160889
25:18.9,0.345703,-1.138916,1.327881
25:18.9,0.366211,-1.15918,1.451172
25:18.9,0.39624,-1.160889,1.517578
25:18.9,0.410156,-1.193115,1.578125
25:18.9,0.423096,-1.204346,1.633545
25:18.9,0.42334,-1.20459,1.639404
25:18.9,0.44043,-1.22168,1.598633
25:18.9,0.453125,-1.233154,1.497559
25:18.9,0.432373,-1.196045,1.358154
25:18.9,0.368652,-1.116455,1.239014
25:19.0,0.30835,-1.022461,1.149902
25:19.0,0.263672,-0.885254,1.075195
25:19.0,0.234375,-0.795898,1.030518
25:19.0,0.265137,-0.765869,1.000488
25:19.0,0.281006,-0.765869,0.955566
25:19.0,0.266602,-0.751709,0.89624
25:19.0,0.25,-0.722656,0.806396
25:19.0,0.265381,-0.676758,0.714111
25:19.0,0.254639,-0.645264,0.635498
25:19.0,0.207764,-0.617188,0.569336
25:19.1,0.199463,-0.556641,0.552246
25:19.1,0.225342,-0.520264,0.510498
25:19.1,0.272949,-0.504883,0.467529
25:19.1,0.291748,-0.477051,0.393799
25:19.1,0.32666,-0.446045,0.331055
25:19.1,0.309814,-0.417236,0.257568
25:19.1,0.264893,-0.376221,0.180176
25:19.1,0.213867,-0.31543,0.103271
25:19.1,0.187012,-0.258545,0.015381
25:19.1,0.207031,-0.251953,-0.003662
25:19.2,0.160645,-0.222656,-0.004395
25:19.2,0.125732,-0.2229,0.012939
25:19.2,0.142334,-0.30957,0.060547
25:19.2,0.081543,-0.444824,0.163086
25:19.2,-0.133301,-0.52002,0.24585
25:19.2,-0.445313,-0.569092,0.335449
25:19.2,-1.159668,-0.531006,0.205078
25:19.2,-2.087158,-0.420166,0.052979
25:19.2,-3.33667,-0.23999,-0.628418
25:19.2,-4.250977,0.739502,-1.968018
25:19.3,-4.534912,3.159912,-3.026123
25:19.3,-4.426514,6.465576,-3.265381
25:19.3,-4.886719,7.999756,-3.278076
25:19.3,-5.684082,6.65332,-3.197998
25:19.3,-7.202393,3.30127,-2.727295
25:19.3,-8,0.288574,-0.947754
25:19.3,-8,-1.618408,4.097168
25:19.3,-8,-4.777344,7.999756
25:19.3,-7.084961,-7.914795,7.999756
25:19.3,1.201904,-8,7.999756
25:19.4,5.369629,-8,7.124023
25:19.4,-0.808105,-6.656982,2.424805
25:19.4,-2.60498,-2.383545,0.969971
25:19.4,-0.358398,-0.669434,4.308105
25:19.4,0.814941,-0.76001,4.092529
25:19.4,0.453857,-1.096191,2.387695
25:19.4,0.328857,-1.510742,0.922363
25:19.4,0.458008,-1.667969,0.390137
25:19.4,0.739014,-1.393799,0.839355
25:19.4,0.861816,-1.098633,1.027588
25:19.5,0.746582,-0.859619,0.838867
25:19.5,0.650146,-0.758057,0.613281
25:19.5,0.597656,-0.789307,0.509277
25:19.5,0.483643,-0.810547,0.435791
25:19.5,0.397949,-0.77417,0.443115
25:19.5,0.349365,-0.761475,0.49585
25:19.5,0.373047,-0.776855,0.550781
25:19.5,0.473145,-0.862061,0.641846
25:19.5,0.51709,-0.907715,0.67627
25:19.5,0.452637,-0.844238,0.674316
25:19.6,0.343506,-0.726563,0.683105
25:19.6,0.268066,-0.571533,0.614502
25:19.6,0.177734,-0.435547,0.537109
25:19.6,0.119629,-0.299316,0.459473
25:19.6,0.075195,-0.179199,0.351563
25:19.6,0.046143,-0.07373,0.245361
25:19.6,0.046631,0.016602,0.139404
25:19.6,0.03125,0.107666,0.04834
25:19.6,0.030273,0.169922,-0.027588
25:19.6,0.061035,0.185059,-0.089355
25:19.7,0.060791,0.232422,-0.137207
25:19.7,0.089355,0.22583,-0.15625
25:19.7,0.124756,0.138672,-0.143066
25:19.7,0.106201,0.065674,-0.127686
25:19.7,0.02002,-0.064941,-0.119629
25:19.7,-0.178223,-0.203369,-0.032715
25:19.7,-0.646729,-0.366699,0.025879
25:19.7,-1.403076,-0.3125,0.04126
25:19.7,-2.247314,-0.244141,0.056641
25:19.7,-3.083008,0.000244,-0.424072
25:19.8,-3.947998,1.149658,-2.019775
25:19.8,-4.621338,3.65625,-3.354004
25:19.8,-4.147461,6.075195,-2.637939
25:19.8,-4.610352,7.311768,-2.032715
25:19.8,-5.001709,6.000977,-1.846436
25:19.8,-6.004639,4.0271,-1.626465
25:19.8,-7.650146,1.572998,-1.229248
25:19.8,-8,-0.566895,1.977539
25:19.8,-8,-3.675293,6.904541
25:19.8,-8,-7.266846,7.999756
25:19.9,-1.919678,-8,7.986572
25:19.9,5.054443,-8,7.999756
25:19.9,1.80127,-8,3.91748
25:19.9,-1.643311,-5.287354,0.446777
25:19.9,-0.876709,-1.387207,2.696777
25:19.9,0.5,-0.902588,3.600342
25:19.9,0.682861,-1.189941,2.391357
25:19.9,0.386719,-1.52417,0.914795
25:19.9,0.451904,-1.71875,0.26416
25:19.9,0.68042,-1.568115,0.549072
25:20.0,0.809326,-1.231445,0.863525
25:20.0,0.758301,-0.914307,0.834473
25:20.0,0.616455,-0.701416,0.61792
25:20.0,0.516846,-0.581787,0.410889
25:20.0,0.418213,-0.519043,0.318848
25:20.0,0.352295,-0.509766,0.374756
25:20.0,0.364746,-0.552002,0.581299
25:20.0,0.402832,-0.651855,0.799072
25:20.0,0.47876,-0.802734,0.904297
25:20.0,0.580811,-0.973145,0.925293
25:20.1,0.594971,-1.054932,0.871338
25:20.1,0.544922,-1.016602,0.80127
25:20.1,0.471191,-0.911377,0.716309
25:20.1,0.363037,-0.754883,0.625732
25:20.1,0.246582,-0.580811,0.551514
25:20.1,0.178711,-0.40918,0.472168
25:20.1,0.126953,-0.25,0.369873
25:20.1,0.095947,-0.135986,0.246826
25:20.1,0.05249,-0.031982,0.134766
25:20.1,0.049561,0.049805,-0.003906
25:20.2,0.086182,0.087646,-0.128662
25:20.2,0.114502,0.117188,-0.26001
25:20.2,0.127441,0.144531,-0.324463
25:20.2,0.148926,0.134766,-0.344238
25:20.2,0.209229,0.061523,-0.298828
25:20.2,0.193115,-0.0625,-0.168213
25:20.2,0.03833,-0.151855,-0.027832
25:20.2,-0.237061,-0.241699,0.14209
25:20.2,-0.716064,-0.300049,0.320801
25:20.2,-1.546631,-0.325439,0.375732
25:20.3,-2.319092,-0.153809,0.341064
25:20.3,-3.200928,0.243652,-0.287109
25:20.3,-3.800537,1.5979,-1.759766
25:20.3,-4.258789,4.585938,-2.835938
25:20.3,-3.985107,7.467529,-2.43457
25:20.3,-4.262451,7.560547,-2.161865
25:20.3,-4.560059,5.362061,-2.091064
25:20.3,-5.664307,3.004395,-1.906738
25:20.3,-7.769043,0.883545,-0.856689
25:20.3,-8,-1.202148,3.012207
25:20.4,-8,-4.605469,7.456055
25:20.4,-8,-7.643066,7.999756
25:20.4,1.894531,-8,7.999756
25:20.4,5.167969,-8,7.999756
25:20.4,0.480957,-7.747559,2.545654
25:20.4,-1.293213,-3.899658,0.426514
25:20.4,-0.251221,-1.554688,2.640137
25:20.4,0.760986,-1.250488,3.298828
25:20.4,0.638184,-1.264404,2.352783
25:20.4,0.3479,-1.41748,1.192627
25:20.5,0.391357,-1.587402,0.62915
25:20.5,0.533447,-1.447998,0.746826
25:20.5,0.652832,-1.118896,0.984863
25:20.5,0.623047,-0.802002,0.97583
25:20.5,0.482178,-0.589111,0.75708
25:20.5,0.360107,-0.454834,0.548096
25:20.5,0.231689,-0.340088,0.445313
25:20.5,0.149902,-0.242432,0.43335
25:20.5,0.170654,-0.190674,0.474609
25:20.5,0.231934,-0.231445,0.526611
25:20.6,0.306152,-0.327637,0.572998
25:20.6,0.383301,-0.428467,0.57373
25:20.6,0.419678,-0.503906,0.515381
25:20.6,0.431396,-0.525391,0.466797
25:20.6,0.443115,-0.508057,0.43042
25:20.6,0.428467,-0.462158,0.387451
25:20.6,0.384521,-0.380371,0.370361
25:20.6,0.344238,-0.289795,0.337158
25:20.6,0.312012,-0.2146,0.271484
25:20.6,0.248047,-0.138672,0.19873
25:20.7,0.176758,-0.053955,0.09668
25:20.7,0.140625,0.037842,-0.019287
25:20.7,0.108398,0.104492,-0.147949
25:20.7,0.093018,0.142578,-0.27124
25:20.7,0.118652,0.125732,-0.322021
25:20.7,0.126709,0.023193,-0.220947
25:20.7,0.067383,-0.081055,-0.053223
25:20.7,-0.128662,-0.150146,0.077148
25:20.7,-0.474609,-0.214355,0.174316
25:20.7,-0.951416,-0.219482,0.206055
25:20.8,-1.577393,-0.029297,0.10083
25:20.8,-2.010986,0.285889,-0.166748
25:20.8,-2.417969,0.741699,-0.69458
25:20.8,-2.875488,1.647217,-1.691895
25:20.8,-3.540771,3.637451,-2.759277
25:20.8,-3.550293,5.780518,-2.449707
25:20.8,-3.825928,6.491455,-1.965088
25:20.8,-4.262695,5.211182,-2
25:20.8,-5.282715,3.28125,-1.94165
25:20.8,-7.313232,1.499756,-1.306885
25:20.9,-8,-0.456543,1.272461
25:20.9,-8,-2.029785,5.272461
25:20.9,-7.963623,-5.504639,7.999756
25:20.9,-6.303711,-8,7.984619
25:20.9,3.950928,-8,7.98877
25:20.9,2.91333,-8,5.692383
25:20.9,-0.686279,-5.764893,0.579834
25:20.9,-1.035156,-2.408203,1.144531
25:20.9,-0.271729,-0.581055,2.723389
25:20.9,0.324219,-0.439697,2.756104
25:21.0,0.306152,-0.704834,1.887207
25:21.0,0.297607,-1.117188,1.033936
25:21.0,0.416992,-1.31543,0.589111
25:21.0,0.599609,-1.202393,0.616455
25:21.0,0.775879,-1.001221,0.712402
25:21.0,0.813721,-0.824707,0.601563
25:21.0,0.721924,-0.66333,0.382568
25:21.0,0.611084,-0.546875,0.219238
25:21.0,0.501221,-0.440918,0.116943
25:21.0,0.407471,-0.322266,0.116699
25:21.1,0.293213,-0.25708,0.187744
25:21.1,0.236816,-0.289551,0.319824
25:21.1,0.21875,-0.445313,0.580322
25:21.1,0.263184,-0.786865,0.976563
25:21.1,0.475342,-1.273682,1.350098
25:21.1,0.718262,-1.762939,1.528809
25:21.1,0.85376,-2.084229,1.575684
25:21.1,0.930176,-2.225342,1.594482
25:21.1,0.822266,-2.147461,1.528809
25:21.1,0.602783,-1.873291,1.448975
25:21.2,0.398438,-1.527588,1.369385
25:21.2,0.305664,-1.241455,1.344238
25:21.2,0.31543,-1.064941,1.325928
25:21.2,0.344482,-0.963379,1.223145
25:21.2,0.333008,-0.875732,1.089844
25:21.2,0.259033,-0.737061,0.978027
25:21.2,0.138916,-0.539551,0.855713
25:21.2,0.033691,-0.345459,0.714111
25:21.2,-0.04834,-0.18457,0.562012
25:21.2,-0.078125,-0.075928,0.420898
25:21.3,-0.067139,-0.05542,0.334229
25:21.3,-0.109863,-0.09668,0.298584
25:21.3,-0.203369,-0.145752,0.289795
25:21.3,-0.36377,-0.1604,0.271484
25:21.3,-0.586182,-0.121826,0.271729
25:21.3,-0.893311,-0.060059,0.295166
25:21.3,-1.290283,0.063477,0.182129
25:21.3,-1.686035,0.356201,-0.185547
25:21.3,-1.816406,0.725342,-0.584229
25:21.3,-1.807861,1.192627,-0.934326
25:21.4,-1.90625,2.057617,-1.493652
25:21.4,-2.062012,3.365234,-1.971191
25:21.4,-2.108398,4.65625,-1.94873
25:21.4,-2.161621,5.140381,-1.904053
25:21.4,-2.528076,4.201904,-1.908691
25:21.4,-3.118652,2.629395,-1.52832
25:21.4,-4.079346,1.23584,-0.647461
25:21.4,-4.779297,0.398193,0.941406
25:21.4,-5.700928,-0.276611,2.838623
25:21.4,-6.326172,-1.864014,5.515869
25:21.5,-4.787842,-5.369873,7.999756
25:21.5,2.794678,-8,7.792725
25:21.5,4.193359,-8,5.281494
25:21.5,1.446289,-7.388672,1.751465
25:21.5,0.203613,-3.253906,1.839355
25:21.5,0.454346,-1.209229,2.753174
25:21.5,0.727051,-0.756836,2.302002
25:21.5,0.811768,-0.925049,1.567383
25:21.5,0.64209,-1.199463,0.914795
25:21.5,0.609619,-1.343018,0.541504
25:21.6,0.623047,-1.247559,0.456055
25:21.6,0.658203,-1.024902,0.443359
25:21.6,0.590576,-0.779053,0.346436
25:21.6,0.483398,-0.572998,0.179443
25:21.6,0.404053,-0.427734,0.050049
25:21.6,0.326416,-0.310791,-0.05127
25:21.6,0.274414,-0.269531,-0.080566
25:21.6,0.131592,-0.256836,-0.055176
25:21.6,-0.102051,-0.219482,-0.021729
25:21.6,-0.445557,-0.16626,0.02832
25:21.7,-0.981934,-0.02002,-0.084717
25:21.7,-1.473633,0.443848,-0.806396
25:21.7,-1.951172,1.762939,-2.109375
25:21.7,-2.081787,3.522949,-2.761719
25:21.7,-1.925781,4.7229,-2.605957
25:21.7,-1.936768,4.540039,-2.288086
25:21.7,-2.174072,3.1604,-1.878906
25:21.7,-2.814941,1.726074,-1.31543
25:21.7,-3.918945,0.697754,-0.183838
25:21.7,-4.875488,-0.545898,2.24585
25:21.8,-5.337891,-3.706543,6.737793
25:21.8,0.343994,-7.30127,7.999756
25:21.8,4.944824,-8,6.733398
25:21.8,3.076172,-8,3.874756
25:21.8,0.229736,-5.22998,2.30542
25:21.8,-0.297119,-1.442627,2.177246
25:21.8,0.191406,-0.400391,2.164307
25:21.8,0.549316,-0.433838,1.842773
25:21.8,0.60498,-0.618652,1.406006
25:21.8,0.364746,-0.707031,0.923096
25:21.9,0.177979,-0.693604,0.67041
25:21.9,0.107666,-0.667725,0.616455
25:21.9,-0.031738,-0.627441,0.528564
25:21.9,-0.268066,-0.58667,0.413086
25:21.9,-0.674561,-0.563721,0.40918
25:21.9,-1.394287,-0.458252,0.432617
25:21.9,-2.306152,-0.264893,0.234131
25:21.9,-3.44873,0.80957,-1.125732
25:21.9,-4.340576,3.970459,-3.089111
25:21.9,-4.144531,7.411133,-3.51709
25:22.0,-3.754639,7.999756,-3.296143
25:22.0,-4.016846,6.054199,-3.151123
25:22.0,-4.619141,2.974365,-2.304688
25:22.0,-5.775635,0.766846,-0.8396
25:22.0,-6.931885,-0.388428,1.706055
25:22.0,-7.664551,-1.557617,5.365967
25:22.0,-6.6875,-4.611816,7.999756
25:22.0,-0.51123,-8,7.999756
25:22.0,5.185791,-8,7.172607
25:22.0,1.577637,-7.575928,2.847656
25:22.1,-0.702637,-4.27417,1.926758
25:22.1,-0.3125,-1.066162,2.627197
25:22.1,0.37207,-0.479492,2.433594
25:22.1,0.556152,-0.737549,1.698242
25:22.1,0.499023,-1.08374,0.86792
25:22.1,0.364258,-1.240479,0.405273
25:22.1,0.375,-1.080078,0.39209
25:22.1,0.374023,-0.780518,0.447754
25:22.1,0.35791,-0.508789,0.27832
25:22.1,0.343262,-0.269531,0.000732
25:22.2,0.342285,-0.105225,-0.238525
25:22.2,0.235107,0.030273,-0.327637
25:22.2,0.055664,0.149414,-0.354736
25:22.2,-0.226807,0.378662,-0.552979
25:22.2,-0.625,0.92749,-1.075195
25:22.2,-0.886719,1.837646,-1.57959
25:22.2,-0.980469,2.801758,-1.873779
25:22.2,-0.963379,3.37207,-1.708984
25:22.2,-1.019531,3.078613,-1.209961
25:22.2,-1.320068,2.187012,-0.61499
25:22.3,-1.882813,1.223633,0.190674
25:22.3,-2.35376,0.032227,1.286621
25:22.3,-2.468262,-1.685059,2.895264
25:22.3,-0.583252,-4.037109,4.802979
25:22.3,2.280029,-6.56543,4.763184
25:22.3,2.837158,-7.537109,3.036865
25:22.3,1.609131,-6.114258,1.984619
25:22.3,0.47876,-3.773438,1.969727
25:22.3,0.046631,-1.887451,2.162354
25:22.3,0.020508,-0.854004,2.000244
25:22.4,0.144531,-0.591553,1.644287
25:22.4,0.237305,-0.689209,1.206543
25:22.4,0.196045,-0.715332,0.826904
25:22.4,0.169189,-0.599854,0.636475
25:22.4,0.157227,-0.429199,0.518555
25:22.4,0.178711,-0.322266,0.396484
25:22.4,0.187256,-0.302002,0.322754
25:22.4,0.119873,-0.326172,0.296387
25:22.4,-0.039063,-0.362549,0.297363
25:22.4,-0.32666,-0.399902,0.348633
25:22.5,-0.749756,-0.373047,0.387451
25:22.5,-1.397461,-0.224121,0.164307
25:22.5,-1.969727,0.085205,-0.44458
25:22.5,-2.326416,0.725098,-1.286865
25:22.5,-2.491211,2.063477,-2.06543
25:22.5,-2.485352,3.826904,-2.378906
25:22.5,-2.453613,5.167725,-2.535645
25:22.5,-2.446533,5.300781,-2.753418
25:22.5,-2.587891,3.965088,-2.460693
25:22.5,-3.198486,2.084229,-1.786621
25:22.6,-4.166992,0.678955,-0.503662
25:22.6,-4.969482,-0.055176,1.674316
25:22.6,-6.255371,-1.645996,5.388916
25:22.6,-4.269043,-5.675293,7.999756
25:22.6,3.140381,-8,7.513672
25:22.6,5.390625,-8,4.733154
25:22.6,1.171387,-7.133057,2.302246
25:22.6,-0.510742,-2.992432,2.250244
25:22.6,0.073486,-0.449951,2.725098
25:22.6,0.523193,-0.052979,2.29248
25:22.7,0.653076,-0.369873,1.616211
25:22.7,0.521484,-0.649902,1.059326
25:22.7,0.322754,-0.7771,0.650391
25:22.7,0.401611,-0.754883,0.581299
25:22.7,0.394287,-0.637695,0.487305
25:22.7,0.262207,-0.489014,0.329834
25:22.7,0.065186,-0.421631,0.092041
25:22.7,-0.176025,-0.338623,-0.085449
25:22.7,-0.502197,-0.191406,-0.111572
25:22.7,-0.958984,0,-0.149902
25:22.8,-1.42334,0.281006,-0.528564
25:22.8,-1.756836,0.884277,-1.218994
25:22.8,-2.186279,2.224121,-2.169434
25:22.8,-2.170654,3.878418,-2.524658
25:22.8,-2.109375,4.939697,-2.640869
25:22.8,-2.184082,4.756348,-2.631836
25:22.8,-2.342041,3.335205,-2.12915
25:22.8,-2.763672,1.814209,-1.439697
25:22.8,-3.430908,0.711914,-0.349854
25:22.8,-4.235107,-0.000977,1.480225
25:22.9,-4.985107,-1.502686,4.883545
25:22.9,-3.469482,-5.411377,7.837646
25:22.9,3.38501,-7.806396,7.322754
25:22.9,4.178223,-8,4.362305
25:22.9,1.633057,-7.285645,2.60498
25:22.9,0.102051,-3.702148,2.167725
25:22.9,0.009277,-1.258301,2.200684
25:22.9,0.189453,-0.413818,1.874023
25:22.9,0.348145,-0.408447,1.440918
25:22.9,0.319824,-0.575928,1.036377
25:23.0,0.193359,-0.641602,0.696289
25:23.0,0.17749,-0.639648,0.547119
25:23.0,0.206543,-0.585938,0.439941
25:23.0,0.127197,-0.532471,0.290771
25:23.0,-0.02832,-0.480225,0.201172
25:23.0,-0.269531,-0.486084,0.22876
25:23.0,-0.701172,-0.418213,0.302979
25:23.0,-1.40625,-0.200928,0.175293
25:23.0,-2.011719,0.111084,-0.203613
25:23.0,-2.528564,0.705078,-1.078613
25:23.1,-3.081055,2.384766,-2.202393
25:23.1,-3.091797,4.752686,-2.478027
25:23.1,-2.931885,6.456543,-2.445313
25:23.1,-3.085449,6.412109,-2.679932
25:23.1,-3.556396,4.521973,-2.369141
25:23.1,-4.701904,2.107422,-1.508545
25:23.1,-5.710449,0.267578,0.259766
25:23.1,-6.378906,-0.492188,2.510254
25:23.1,-7.690918,-1.692383,6.115234
25:23.1,-5.633545,-5.778076,7.999756
25:23.2,1.451172,-8,7.832764
25:23.2,4.371582,-8,4.244873
25:23.2,1.455322,-7.707031,0.738525
25:23.2,0.020996,-5.098145,1.875244
25:23.2,-0.049316,-1.848145,2.982666
25:23.2,-0.082031,-0.421143,2.428467
25:23.2,-0.081543,-0.277832,1.27124
25:23.2,0.167725,-0.788086,0.656006
25:23.2,0.352051,-1.02124,0.405273
25:23.2,0.340332,-0.862549,0.229492
25:23.3,0.360352,-0.555176,0.076416
25:23.3,0.342773,-0.217773,-0.083252
25:23.3,0.306885,0.00415,-0.158936
25:23.3,0.170166,0.146973,-0.161133
25:23.3,0,0.346924,-0.174805
25:23.3,-0.138428,0.650391,-0.19873
25:23.3,-0.29126,1.122559,-0.268066
25:23.3,-0.392578,1.641846,-0.385498
25:23.3,-0.388428,2.019531,-0.651123
25:23.3,-0.348877,2.159912,-0.985107
25:23.4,-0.311523,1.905762,-1.13623
25:23.4,-0.407715,1.450928,-0.999023
25:23.4,-0.747803,0.937988,-0.666748
25:23.4,-1.218506,0.130127,0.034912
25:23.4,-1.566162,-1.3396,1.475098
25:23.4,-0.682617,-3.820801,3.385498
25:23.4,2.30127,-6.389893,3.690674
25:23.4,3.422119,-6.979736,3.431396
25:23.4,2.286865,-5.775635,2.93335
25:23.4,0.707764,-3.732178,1.970947
25:23.5,0.036621,-1.86084,1.489502
25:23.5,0.049561,-0.71875,1.376953
25:23.5,0.215576,-0.500977,1.123535
25:23.5,0.339844,-0.57251,0.929688
25:23.5,0.298828,-0.55835,0.797363
25:23.5,0.180176,-0.475098,0.72876
25:23.5,0.072021,-0.352783,0.687988
25:23.5,-0.05127,-0.250977,0.593018
25:23.5,-0.133789,-0.1875,0.453369
25:23.5,-0.30957,-0.226318,0.343018
25:23.6,-0.604492,-0.24292,0.342285
25:23.6,-1.207031,-0.128174,0.162354
25:23.6,-1.706299,0.053467,-0.03833
25:23.6,-2.085449,0.412598,-0.493652
25:23.6,-2.869629,1.84375,-2.177246
25:23.6,-3.175537,3.951416,-3.281006
25:23.6,-3.067383,5.640625,-2.924316
25:23.6,-3.034668,5.933594,-2.747803
25:23.6,-3.305664,4.553467,-2.674316
25:23.6,-3.85791,2.41626,-1.866943
25:23.7,-4.780273,0.859863,-0.630371
25:23.7,-5.734863,0.041748,1.121094
25:23.7,-6.484619,-0.69165,3.803711
25:23.7,-7.637939,-3.889404,7.130371
25:23.7,-1.003418,-7.436523,7.999756
25:23.7,4.807861,-8,6.149414
25:23.7,2.945068,-8,2.996094
25:23.7,0.414551,-6.203125,2.107178
25:23.7,-0.236816,-2.195557,2.291504
25:23.7,0.110107,-0.510986,2.374268
25:23.8,0.378174,-0.442627,1.681396
25:23.8,0.344971,-0.819336,0.976318
25:23.8,0.264893,-0.996094,0.709961
25:23.8,0.251221,-0.963379,0.540283
25:23.8,0.224854,-0.768311,0.273438
25:23.8,0.223877,-0.507813,0.056152
25:23.8,0.166016,-0.28125,-0.016357
25:23.8,-0.01001,-0.109131,-0.047363
25:23.8,-0.283691,0.043945,-0.100586
25:23.8,-0.632813,0.193115,-0.205078
25:23.9,-1.018066,0.605469,-0.580078
25:23.9,-1.512695,1.664551,-1.536133
25:23.9,-1.806641,3.231934,-2.481689
25:23.9,-1.733643,4.367432,-2.518555
25:23.9,-1.595459,4.051025,-2.033936
25:23.9,-1.512451,2.79834,-1.472412
25:23.9,-1.846191,1.599609,-0.878174
25:23.9,-2.589355,0.616455,0.159424
25:23.9,-3.367188,-0.5896,2.026855
25:23.9,-3.090576,-3.021973,5.267334
25:24.0,0.280029,-6.678223,7.058594
25:24.0,4.304688,-8,5.228516
25:24.0,3.070557,-7.772217,3.195801
25:24.0,0.912598,-5.416504,2.234619
25:24.0,-0.062256,-2.311035,1.720947
25:24.0,0.053467,-0.906006,1.701416
25:24.0,0.324219,-0.583252,1.534912
25:24.0,0.42041,-0.677979,1.281006
25:24.0,0.268555,-0.71875,0.978516
25:24.0,0.118408,-0.66748,0.786865
25:24.1,0.045166,-0.560059,0.637207
25:24.1,0.000488,-0.484863,0.531738
25:24.1,-0.10376,-0.392334,0.485107
25:24.1,-0.279541,-0.389893,0.482178
25:24.1,-0.586182,-0.408936,0.541504
25:24.1,-1.033447,-0.3479,0.605225
25:24.1,-1.772949,-0.124512,0.38208
25:24.1,-2.374023,0.218018,0.167725
25:24.1,-2.903564,0.674072,-0.349609
25:24.1,-3.401367,1.708496,-1.686035
25:24.2,-3.614014,3.761963,-2.812256
25:24.2,-3.442383,5.901855,-2.656738
25:24.2,-3.721924,6.593262,-2.542969
25:24.2,-3.771484,5.264648,-2.418945
25:24.2,-4.338623,3.486084,-2.060059
25:24.2,-5.427979,1.310547,-0.999512
25:24.2,-6.773438,-0.236084,1.275879
25:24.2,-7.968994,-1.316406,4.348877
25:24.2,-8,-4.902344,7.442871
25:24.2,-2.022949,-7.706543,7.999756
25:24.3,4.901367,-8,7.499268
25:24.3,3.740967,-8,4.181152
25:24.3,-0.005127,-5.938232,1.51709
25:24.3,-0.617676,-2.249756,1.569824
25:24.3,0.254639,-0.535156,2.271729
25:24.3,0.535645,-0.435059,1.844727
25:24.3,0.429443,-0.793213,0.925781
25:24.3,0.237061,-0.906738,0.449463
25:24.3,0.211182,-0.826172,0.430176
25:24.3,0.278564,-0.64917,0.374268
25:24.4,0.307861,-0.407471,0.106934
25:24.4,0.312012,-0.19165,-0.160156
25:24.4,0.161621,0.011963,-0.332031
25:24.4,-0.065186,0.194824,-0.412354
25:24.4,-0.364746,0.545166,-0.666504
25:24.4,-0.797607,1.380859,-1.350098
25:24.4,-1.051758,2.638184,-1.970703
25:24.4,-1.080811,3.652832,-1.980469
25:24.4,-1.060059,3.642822,-1.587891
25:24.4,-1.109619,2.721191,-1.075928
25:24.5,-1.560303,1.574463,-0.42334
25:24.5,-2.294678,0.561523,0.531006
25:24.5,-2.948975,-0.760986,2.384033
25:24.5,-2.228516,-3.166748,4.73877
25:24.5,0.867432,-5.984131,5.44873
25:24.5,3.262207,-7.622559,4.16333
25:24.5,2.32666,-7.123779,2.317383
25:24.5,0.637451,-4.655762,1.518066
25:24.5,-0.117676,-2.14917,1.593994
25:24.5,-0.018799,-0.911133,1.88623
25:24.6,0.130371,-0.521484,1.735107
25:24.6,0.201416,-0.571533,1.388672
25:24.6,0.177246,-0.644531,1.061768
25:24.6,0.110107,-0.573486,0.786865
25:24.6,0.071777,-0.450928,0.70166
25:24.6,0.052979,-0.295898,0.674805
25:24.6,-0.010254,-0.185791,0.593262
25:24.6,-0.056152,-0.151123,0.52002
25:24.6,-0.1521,-0.135742,0.477051
25:24.6,-0.426758,-0.08667,0.431885
25:24.7,-0.724609,-0.022705,0.380859
25:24.7,-1.147705,0.092773,0.208252
25:24.7,-1.691406,0.376953,-0.309326
25:24.7,-1.944336,0.843506,-0.969482
25:24.7,-2.433838,2.071045,-2.113525
25:24.7,-2.439941,4.066162,-2.598877
25:24.7,-2.333252,5.395752,-2.609375
25:24.7,-2.285156,5.370361,-2.64624
25:24.7,-2.494873,3.925293,-2.256348
25:24.7,-3.219971,2.121582,-1.493164
25:24.8,-4.205078,0.69458,-0.110352
25:24.8,-4.963623,-0.077393,1.655029
25:24.8,-5.666992,-1.764893,5.27832
25:24.8,-4.871582,-6.331055,7.876221
25:24.8,3.328369,-7.952148,7.509277
25:24.8,4.677246,-8,3.793213
25:24.8,1.864502,-8,2.045898
25:24.8,0.124268,-4.610596,1.847412
25:24.8,-0.006592,-1.686768,2.127197
25:24.8,0.1604,-0.462158,1.996338
25:24.9,0.209229,-0.388916,1.436768
25:24.9,0.265625,-0.685059,0.991943
25:24.9,0.208496,-0.787598,0.712158
25:24.9,0.212891,-0.740234,0.611328
25:24.9,0.199463,-0.585449,0.546631
25:24.9,0.093506,-0.370117,0.41626
25:24.9,-0.0979,-0.220459,0.281982
25:24.9,-0.385254,-0.091064,0.234375
25:24.9,-0.743652,-0.012207,0.262939
25:24.9,-1.224365,0.185547,-0.09668
25:25.0,-1.954102,1.175781,-1.416748
25:25.0,-2.489014,3.2146,-2.773193
25:25.0,-2.415771,5.016846,-2.933105
25:25.0,-1.967773,5.029785,-2.35376
25:25.0,-1.868164,3.621582,-1.93457
25:25.0,-2.232178,2.078369,-1.490234
25:25.0,-2.986816,0.949463,-0.622803
25:25.0,-3.708008,0.050537,0.966064
25:25.0,-4.033203,-1.612549,4.362793
25:25.0,-1.667236,-5.280762,7.166016
25:25.1,2.997803,-8,6.171143
25:25.1,4.043213,-8,3.818848
25:25.1,1.742432,-7.047119,2.554932
25:25.1,0.273926,-3.517578,2.195801
25:25.1,0.215332,-1.330078,1.993652
25:25.1,0.287598,-0.605957,1.702881
25:25.1,0.302979,-0.562744,1.326172
25:25.1,0.247559,-0.777344,1.053711
25:25.1,0.109619,-0.741943,0.899658
25:25.1,0.023926,-0.591309,0.834473
25:25.2,-0.059814,-0.447266,0.762451
25:25.2,-0.275879,-0.323975,0.661133
25:25.2,-0.577393,-0.260254,0.600098
25:25.2,-1.013672,-0.161621,0.500488
25:25.2,-1.539551,0.045654,0.358154
25:25.2,-2.115234,0.301758,0.096436
25:25.2,-2.616455,0.78833,-0.525879
25:25.2,-3.180664,2.180908,-1.890381
25:25.2,-3.386963,4.509277,-2.746582
25:25.2,-3.072998,6.068848,-2.696045
25:25.3,-3.063721,6.15332,-2.85376
25:25.3,-3.399902,4.687256,-2.669434
25:25.3,-4.123291,2.689941,-1.848389
25:25.3,-5.122559,0.861084,-0.578857
25:25.3,-5.931641,-0.269775,1.639404
25:25.3,-6.648438,-1.043945,3.870361
25:25.3,-6.900879,-3.89624,7.999756
25:25.3,-2.748535,-7.955811,7.999268
25:25.3,4.62915,-8,6.733887
25:25.3,3.284668,-8,2.726807
25:25.4,0.561279,-6.724609,1.533203
25:25.4,-0.231201,-3.070313,1.709961
25:25.4,-0.068359,-0.884766,2.024658
25:25.4,0.125732,-0.287598,1.519043
25:25.4,0.12915,-0.457275,0.770996
25:25.4,0.123047,-0.604248,0.491211
25:25.4,0.127686,-0.575928,0.423828
25:25.4,0.222412,-0.446777,0.335938
25:25.4,0.224854,-0.202637,0.154541
25:25.4,0.132813,0.067139,0.028076
25:25.5,0.008789,0.256836,-0.043945
25:25.5,-0.157959,0.571777,-0.213867
25:25.5,-0.584717,1.613037,-0.690674
25:25.5,-0.880371,2.927734,-1.268311
25:25.5,-1.041504,3.78125,-1.65625
25:25.5,-1.167725,3.388916,-1.7854
25:25.5,-1.333008,2.185547,-1.455078
25:25.5,-1.708252,1.022217,-0.743652
25:25.5,-2.389648,0.171631,0.136475
25:25.5,-3.191162,-1.313965,1.928955
25:25.6,-2.352051,-4.222412,4.194824
25:25.6,1.029053,-7.00708,4.916504
25:25.6,2.996826,-8,3.674805
25:25.6,2.318604,-7.972656,2.016846
25:25.6,1.041748,-6.353271,1.596191
25:25.6,0.249268,-4.172119,2.028809
25:25.6,-0.034912,-2.623779,2.314209
25:25.6,-0.081299,-1.868164,2.333252
25:25.6,0.01123,-1.850342,2.12207
25:25.6,0.104492,-1.943848,1.800537
25:25.7,0.136719,-1.804932,1.483154
25:25.7,0.116211,-1.552979,1.264893
25:25.7,0.077393,-1.246338,1.215088
25:25.7,0.024902,-0.942139,1.240723
25:25.7,-0.103271,-0.671631,1.258057
25:25.7,-0.255127,-0.451904,1.233154
25:25.7,-0.302734,-0.363037,1.15625
25:25.7,-0.317383,-0.357178,1.089111
25:25.7,-0.344238,-0.389404,0.948242
25:25.7,-0.411133,-0.537109,0.719238
25:25.8,-0.547363,-0.64624,0.731934
25:25.8,-0.880615,-0.719238,0.967773
25:25.8,-1.456055,-0.789307,1.198975
25:25.8,-2.385498,-0.797852,1.378662
25:25.8,-3.622803,-0.669922,1.325684
25:25.8,-4.90918,-0.206787,0.729492
25:25.8,-6.131592,1.183838,-0.786377
25:25.8,-6.552002,4.499756,-2.138428
25:25.8,-6.537354,7.999756,-2.490234
25:25.8,-7.056152,7.960205,-1.99707
25:25.9,-6.439941,6.614014,-1.854248
25:25.9,-6.563965,3.044189,-1.196777
25:25.9,-8,0.614746,-0.658691
25:25.9,-8,-2.20166,1.730713
25:25.9,-8,-3.297119,5.330811
25:25.9,-8,-5.714355,7.999756
25:25.9,-7.410645,-8,7.989014
25:25.9,4.869873,-8,7.919189
25:25.9,3.057373,-7.961426,5.613281
25:25.9,-1.119385,-5.351074,0.80249
25:26.0,-1.549316,-1.876709,0.812988
25:26.0,-1.05835,0.241699,2.509277
25:26.0,-0.734131,1.437256,2.481445
25:26.0,-0.689941,1.432129,1.771729
25:26.0,-0.663818,0.917236,0.900146
25:26.0,-0.602539,0.464844,0.117432
25:26.0,-0.408203,0.176758,-0.226563
25:26.0,-0.131104,0.026367,-0.112793
25:26.0,0.087158,0.011719,0.021484
25:26.0,0.227051,0.135254,0.009033
25:26.1,0.300781,0.272705,-0.009766
25:26.1,0.359131,0.340332,-0.031494
25:26.1,0.249756,0.306396,-0.081055
25:26.1,0.064453,0.394043,-0.187744
25:26.1,-0.293945,0.90918,-0.790039
25:26.1,-0.617676,1.864502,-2.057861
25:26.1,-0.969971,2.964111,-3.158447
25:26.1,-1.410889,3.078613,-2.859619
25:26.1,-1.710205,2.306885,-1.565918
25:26.1,-2.648682,1.563477,-0.319092
25:26.2,-4.057617,0.300293,1.020264
25:26.2,-5.290039,-1.827393,3.054199
25:26.2,-4.63501,-5.300537,6.669922
25:26.2,-1.175537,-7.770264,7.384766
25:26.2,1.487793,-8,4.079102
25:26.2,1.582764,-8,1.654297
25:26.2,0.824219,-8,1.542725
25:26.2,-0.026611,-6.515869,1.713379
25:26.2,-0.96167,-3.935303,1.354736
25:26.2,-1.449707,-2.011963,1.126221
25:26.3,-1.119385,-1.152344,1.215088
25:26.3,-0.476318,-1.381592,1.159912
25:26.3,-0.102051,-1.671875,0.970703
25:26.3,0.007324,-1.545166,0.801758
25:26.3,0.006104,-1.260254,0.663818
25:26.3,-0.078857,-0.952148,0.583252
25:26.3,-0.196777,-0.706543,0.48999
25:26.3,-0.29248,-0.547607,0.347412
25:26.3,-0.499023,-0.528809,0.144043
25:26.3,-0.969727,-0.607666,0.282471
25:26.4,-1.739502,-0.594971,0.949219
25:26.4,-2.708984,-0.560547,1.276123
25:26.4,-3.73584,-0.270508,1.019043
25:26.4,-4.675293,0.729736,0.072754
25:26.4,-5.375977,3.50708,-2.555176
25:26.4,-5.017334,7.412598,-4.255615
25:26.4,-4.49292,7.999756,-3.114258
25:26.4,-4.907227,7.242676,-2.817871
25:26.4,-5.546387,4.321045,-2.163574
25:26.4,-6.819824,1.697754,-1.095703
25:26.5,-8,-0.552246,0.807617
25:26.5,-8,-2.570313,4.539795
25:26.5,-8,-5.760254,7.999756
25:26.5,-5.362061,-8,7.999756
25:26.5,5.4646,-8,7.872314
25:26.5,3.451904,-7.986816,6.204834
25:26.5,-0.410156,-6.936035,2.793701
25:26.5,-1.049805,-1.89209,2.357666
25:26.5,-0.123291,-0.264404,3.17749
25:26.5,0.23877,-0.461182,2.419922
25:26.6,0.360596,-1.000977,1.394775
25:26.6,0.279297,-1.187256,0.569824
25:26.6,0.109863,-0.972656,0.236572
25:26.6,0.213623,-0.746826,0.325928
25:26.6,0.307617,-0.474854,0.32251
25:26.6,0.343018,-0.197998,0.09082
25:26.6,0.338135,0.022217,-0.186523
25:26.6,0.214844,0.183838,-0.405762
25:26.6,0.022705,0.284424,-0.427734
25:26.6,-0.181152,0.324463,-0.361572
25:26.7,-0.472412,0.447266,-0.480713
25:26.7,-0.854248,0.717773,-1.072021
25:26.7,-0.850098,1.139648,-1.83374
25:26.7,-0.636475,1.665039,-2.242432
25:26.7,-0.257324,1.837646,-1.950439
25:26.7,-0.00415,1.717529,-1.557861
25:26.7,-0.195313,1.54834,-1.266846
25:26.7,-0.778564,0.909668,-0.463379
25:26.7,-1.318115,-0.787354,1.477539
25:26.7,-0.984863,-3.008545,3.85083
25:26.8,0.928223,-5.156006,4.788574
25:26.8,2.572021,-5.66333,5.07373
25:26.8,2.362549,-4.929199,4.620361
25:26.8,1.006592,-3.30835,3.234375
25:26.8,0.186035,-1.489014,2.297363
25:26.8,0.089355,-0.461426,1.959961
25:26.8,0.195068,-0.171631,1.602783
25:26.8,0.263916,-0.174072,1.198242
25:26.8,0.224121,-0.119629,0.927979
25:26.8,0.106445,0.036621,0.780029
25:26.9,-0.011719,0.147705,0.643066
25:26.9,-0.072266,0.14917,0.467773
25:26.9,-0.115234,0.11499,0.27417
25:26.9,-0.245361,0.099609,0.140625
25:26.9,-0.44165,0.078613,0.129639
25:26.9,-0.794922,0.129883,0.135254
25:26.9,-1.218994,0.234131,0.068359
25:26.9,-1.537354,0.361572,-0.296631
25:26.9,-2.083252,1.085693,-1.549805
25:26.9,-2.671875,2.82959,-2.861084
25:27.0,-2.555664,4.763184,-2.777344
25:27.0,-2.182861,5.80542,-2.209717
25:27.0,-2.501465,5.422119,-2.2146
25:27.0,-3.155273,3.637695,-2.039551
25:27.0,-4.011963,1.703857,-1.154297
25:27.0,-5.349854,0.383301,0.297607
25:27.0,-6.594482,-1.608643,3.366699
25:27.0,-5.351563,-5.269287,7.014893
25:27.0,0.212646,-8,7.999756
25:27.0,4.117188,-8,7.354736
25:27.1,2.316162,-7.504883,5.798584
25:27.1,-0.093994,-4.092285,3.693604
25:27.1,-0.505127,-0.961426,2.536133
25:27.1,0.482178,-0.471924,2.329102
25:27.1,0.739502,-0.902344,1.731201
25:27.1,0.584473,-1.24585,1.224854
25:27.1,0.328125,-1.158203,0.932617
25:27.1,0.164307,-0.888428,0.80835
25:27.1,0.119629,-0.636963,0.724609
25:27.1,0.098633,-0.474121,0.47583
25:27.2,-0.052979,-0.271973,0.156494
25:27.2,-0.303955,-0.045898,-0.043457
25:27.2,-0.601074,0.103271,-0.114258
25:27.2,-1.108398,0.287842,-0.227783
25:27.2,-1.685547,0.606689,-0.793213
25:27.2,-1.781982,1.248291,-1.563477
25:27.2,-1.653564,2.359375,-2.427246
25:27.2,-1.405029,3.093994,-2.831055
25:27.2,-1.338379,3.733398,-2.765869
25:27.2,-1.437256,3.748535,-2.663818
25:27.3,-1.674805,2.911133,-2.133545
25:27.3,-2.338379,1.896484,-1.17041
25:27.3,-3.690674,0.827393,0.458008
25:27.3,-4.656494,-1.516113,4.081543
25:27.3,-2.688721,-5.74292,7.656006
25:27.3,2.89502,-7.847168,7.726318
25:27.3,4.120361,-8,5.806396
25:27.3,1.891357,-7.033203,3.696533
25:27.3,0.122314,-3.609619,2.309082
25:27.3,-0.167236,-1.283691,1.60083
25:27.4,-0.008057,-0.71582,1.195068
25:27.4,0.178955,-0.689453,1.227295
25:27.4,0.052002,-0.598877,1.183105
25:27.4,-0.243408,-0.392578,0.983887
25:27.4,-0.408203,-0.265381,0.863525
25:27.4,-0.521729,-0.225586,0.749756
25:27.4,-0.753418,-0.219971,0.66333
25:27.4,-1.109375,-0.174805,0.566406
25:27.4,-1.60498,-0.000732,0.333984
25:27.4,-2.085449,0.140137,0.279297
25:27.5,-2.66626,0.558105,-0.205322
25:27.5,-3.539063,2.369385,-1.812988
25:27.5,-3.858154,5.093506,-2.614014
25:27.5,-3.658447,6.523438,-2.28125
25:27.5,-3.775146,6.206543,-2.213379
25:27.5,-3.991943,4.745117,-2.294922
25:27.5,-4.373047,2.608154,-1.806396
25:27.5,-5.212158,0.587891,-0.600342
25:27.5,-6.014893,-0.845215,1.172363
25:27.5,-5.917725,-1.929688,3.553223
25:27.6,-7.432861,-5.083008,6.664063
25:27.6,-2.33374,-8,7.999756
25:27.6,7.039063,-8,6.630615
25:27.6,3.980469,-8,2.974854
25:27.6,0.459229,-5.689209,2.091309
25:27.6,-0.348633,-1.289551,1.71167
25:27.6,0.19873,-0.494141,1.128906
25:27.6,0.663086,-0.68335,0.752197
25:27.6,0.409912,-0.674316,0.602295
25:27.6,0.240479,-0.578613,0.436279
25:27.7,0.294922,-0.563232,0.267578
25:27.7,0.413086,-0.423828,0.12915
25:27.7,0.405518,-0.175781,0.059082
25:27.7,0.353271,0.032715,0.004639
25:27.7,0.227295,0.19751,-0.103271
25:27.7,0.062988,0.321533,-0.180908
25:27.7,-0.162354,0.592041,-0.328613
25:27.7,-0.539307,1.19873,-0.635498
25:27.7,-0.979004,2.113525,-1.090088
25:27.7,-1.12793,3.014893,-1.373535
25:27.8,-1.105469,3.269287,-1.291748
25:27.8,-1.080322,2.643555,-1.048828
25:27.8,-1.179688,1.736328,-0.625488
25:27.8,-1.504883,0.891357,0.031738
25:27.8,-1.94873,0.084229,1.105957
25:27.8,-2.238281,-1.335449,2.783203
25:27.8,-1.223877,-3.776123,4.613281
25:27.8,2.459961,-6.201172,4.580322
25:27.8,3.919922,-7.319336,3.38916
25:27.8,2.753662,-6.697021,2.001709
25:27.9,1.181396,-4.498779,1.498779
25:27.9,0.35498,-2.495117,1.608154
25:27.9,0.173828,-1.312256,1.682861
25:27.9,0.212158,-0.758301,1.528809
25:27.9,0.219238,-0.562744,1.276855
25:27.9,0.231689,-0.523682,1.005615
25:27.9,0.118652,-0.476318,0.686035
25:27.9,0.05542,-0.357666,0.493652
25:27.9,0.02002,-0.259277,0.427979
25:27.9,0.026611,-0.249512,0.411865
25:28.0,-0.023438,-0.314209,0.383301
25:28.0,-0.224609,-0.41626,0.348633
25:28.0,-0.527588,-0.471191,0.423828
25:28.0,-0.950684,-0.410156,0.519043
25:28.0,-1.581787,-0.141602,0.349365
25:28.0,-2.056396,0.162354,0.096191
25:28.0,-2.450195,0.694824,-0.664063
25:28.0,-3.030762,2.176758,-1.945801
25:28.0,-3.212646,3.987549,-2.490479
25:28.0,-3.017578,5.134521,-2.28833
25:28.1,-3.134033,5.530518,-2.424561
25:28.1,-3.380371,4.788086,-2.493164
25:28.1,-3.936768,3.202393,-1.947266
25:28.1,-5.134277,1.201904,-0.861572
25:28.1,-6.221191,-0.319336,1.014893
25:28.1,-7.061523,-1.926025,4.943115
25:28.1,-7.492188,-6.040771,7.902832
25:28.1,0.298584,-8,7.999756
25:28.1,7.015625,-8,5.725342
25:28.1,3.626709,-8,0.914551
25:28.2,0.344971,-6.325195,0.526611
25:28.2,-0.117676,-2.217773,2.135254
25:28.2,0.201904,-0.352783,2.670654
25:28.2,0.005859,0.372803,1.914307
25:28.2,0.010986,-0.071045,1.089111
25:28.2,0.201172,-0.589111,0.647217
25:28.2,0.324463,-0.662842,0.47583
25:28.2,0.291504,-0.390137,0.247314
25:28.2,0.150391,-0.065674,-0.02124
25:28.2,-0.023438,0.1604,-0.152588
25:28.3,-0.23291,0.263916,-0.147949
25:28.3,-0.494629,0.354004,-0.152832
25:28.3,-0.915039,0.752441,-0.448975
25:28.3,-1.474609,1.740967,-1.19043
25:28.3,-1.874268,3.173584,-1.942383
25:28.3,-1.836182,4.185547,-1.976563
25:28.3,-1.640625,3.908936,-1.660156
25:28.3,-1.602295,2.843994,-1.271973
25:28.3,-1.915283,1.758545,-0.759277
25:28.3,-2.549072,0.639893,0.315918
25:28.4,-2.824463,-0.974854,2.42041
25:28.4,-2.080078,-3.473633,5.385498
25:28.4,1.539063,-6.578125,6.142578
25:28.4,4.92749,-8,4.295166
25:28.4,3.806641,-7.681885,2.500244
25:28.4,1.770264,-5.201904,1.516602
25:28.4,0.518311,-2.601318,1.401123
25:28.4,0.193848,-1.12793,1.419189
25:28.4,0.108887,-0.527344,1.280273
25:28.4,0.110107,-0.300781,1.238037
25:28.5,0.03418,-0.17334,0.967773
25:28.5,0,-0.226318,0.703613
25:28.5,0.031738,-0.346191,0.572266
25:28.5,-0.002686,-0.450928,0.500977
25:28.5,-0.116211,-0.607666,0.541992
25:28.5,-0.424316,-0.68042,0.550049
25:28.5,-1.003418,-0.571533,0.53418
25:28.5,-1.670166,-0.366211,0.401855
25:28.5,-2.234619,-0.047119,0.250977
25:28.5,-2.837402,0.486084,-0.188477
25:28.6,-3.230713,1.4021,-1.373535
25:28.6,-3.650391,3.151611,-2.535645
25:28.6,-3.631592,5.023682,-2.704102
25:28.6,-3.653076,6.004395,-2.628906
25:28.6,-3.846924,5.403564,-2.701172
25:28.6,-3.746094,3.534424,-2.417969
25:28.6,-4.059814,1.896973,-1.730225
25:28.6,-4.850342,0.794434,-0.812012
25:28.6,-6.006348,-0.281738,1.260986
25:28.6,-7.749512,-1.560791,4.109131
25:28.7,-8,-5.432373,7.267578
25:28.7,-3.388672,-7.963623,7.999756
25:28.7,5.639648,-8,4.779297
25:28.7,5.983887,-8,-0.10083
25:28.7,1.610352,-7.399414,-0.365967
25:28.7,-0.083008,-4.309326,0.757324
25:28.7,-0.210449,-1.475098,1.446289
25:28.7,-0.194336,-0.068604,1.582031
25:28.7,-0.188965,0.309326,1.189697
25:28.7,0.106689,-0.028809,0.829346
25:28.8,0.314697,-0.269287,0.440186
25:28.8,0.337158,-0.273926,-0.068115
25:28.8,0.383545,-0.188965,-0.406982
25:28.8,0.438232,-0.085449,-0.460938
25:28.8,0.419678,-0.007324,-0.404297
25:28.8,0.239746,0.077148,-0.301025
25:28.8,0.00708,0.223877,-0.227539
25:28.8,-0.308838,0.635254,-0.384277
25:28.8,-0.722168,1.419922,-0.673828
25:28.8,-0.90625,2.300537,-0.847656
25:28.9,-0.881348,2.818359,-0.855957
25:28.9,-0.799316,2.792236,-0.705322
25:28.9,-0.738037,2.219482,-0.446289
25:28.9,-0.822998,1.405029,-0.082031
25:28.9,-1.234863,0.659668,0.435547
25:28.9,-1.580811,-0.36499,1.412842
25:28.9,-1.151367,-2.401123,3.181641
25:28.9,0.61377,-4.911865,4.201416
25:28.9,3.418457,-6.427246,2.934082
25:28.9,3.271484,-6.42749,2.522949
25:29.0,2.098145,-5.018799,2.066406
25:29.0,0.694092,-2.999023,1.4021
25:29.0,0.243896,-1.469238,1.386963
25:29.0,0.305664,-0.693604,1.43457
25:29.0,0.404541,-0.545654,1.33667
25:29.0,0.459229,-0.619385,1.159912
25:29.0,0.466553,-0.69458,0.974365
25:29.0,0.41626,-0.718018,0.780029
25:29.0,0.353516,-0.664795,0.663086
25:29.0,0.259521,-0.524414,0.558105
25:29.1,0.091309,-0.372559,0.483154
25:29.1,-0.074707,-0.205811,0.422607
25:29.1,-0.256104,-0.068359,0.391357
25:29.1,-0.451172,0.037109,0.391113
25:29.1,-0.697021,0.177246,0.376465
25:29.1,-0.843018,0.220703,0.370117
25:29.1,-1.166992,0.371338,0.23999
25:29.1,-1.451904,0.574219,0.000977
25:29.1,-1.838623,1.293457,-0.845947
25:29.1,-2.419189,2.549316,-1.919922
25:29.2,-2.489258,3.718018,-1.899658
25:29.2,-2.283691,4.449707,-1.400635
25:29.2,-2.318604,4.373779,-1.41333
25:29.2,-2.569824,3.608398,-1.673828
25:29.2,-2.572754,2.256592,-1.297607
25:29.2,-3.189209,1.172607,-0.511719
25:29.2,-4.101318,0.470215,1.098389
25:29.2,-5.680664,-0.648682,3.049072
25:29.2,-6.224854,-4.578613,7.020264
25:29.2,-0.927979,-7.666992,7.999756
25:29.3,5.453369,-8,5.891602
25:29.3,4.403809,-8,2.176758
25:29.3,1.047363,-6.528809,0.882568
25:29.3,-0.028076,-3.095947,1.279785
25:29.3,0.020996,-0.925049,1.880859
25:29.3,0.177002,-0.203613,1.733643
25:29.3,0.194092,-0.219971,1.165283
25:29.3,0.22168,-0.4104,0.835938
25:29.3,0.250244,-0.475342,0.61084
25:29.3,0.273193,-0.474609,0.376221
25:29.4,0.31665,-0.4646,0.261475
25:29.4,0.310303,-0.397705,0.277588
25:29.4,0.20752,-0.295166,0.296875
25:29.4,0.027344,-0.211426,0.271729
25:29.4,-0.211182,-0.148438,0.238281
25:29.4,-0.538086,-0.043213,0.176025
25:29.4,-1.071045,0.401123,-0.2146
25:29.4,-1.858643,1.826172,-1.308594
25:29.4,-2.203613,3.773193,-2.265381
25:29.4,-1.81958,4.697266,-2.0625
25:29.5,-1.488037,4.216309,-1.551025
25:29.5,-1.486328,2.966553,-1.503662
25:29.5,-1.775635,1.803467,-1.218994
25:29.5,-2.347412,0.863281,-0.228516
25:29.5,-3.388428,-0.438232,1.51001
25:29.5,-3.487305,-3.666748,4.328369
25:29.5,0.016113,-7.607422,5.45166
25:29.5,4.565186,-8,3.222656
25:29.5,4.243408,-7.949707,2.279785
25:29.5,1.81958,-6.510986,1.74707
25:29.6,0.205811,-3.203857,1.15625
25:29.6,-0.133545,-1.179199,1.283691
25:29.6,-0.063232,-0.431885,1.312744
25:29.6,0.079346,-0.401611,1.131592
25:29.6,0.189209,-0.532227,0.960449
25:29.6,0.205566,-0.544189,0.76416
25:29.6,0.174805,-0.463379,0.505127
25:29.6,0.066162,-0.307129,0.365234
25:29.6,0.022949,-0.202393,0.434814
25:29.6,-0.05835,-0.084961,0.575195
25:29.7,-0.200928,-0.063721,0.661865
25:29.7,-0.405029,-0.127686,0.703857
25:29.7,-0.758301,-0.173096,0.687256
25:29.7,-1.181396,-0.249756,0.687988
25:29.7,-1.83374,-0.194824,0.567383
25:29.7,-2.369141,0.078613,0.476074
25:29.7,-2.860596,0.586182,-0.006104
25:29.7,-3.27832,1.642822,-1.162109
25:29.7,-3.708496,3.573242,-2.392822
25:29.7,-3.273926,5.346191,-1.938965
25:29.8,-3.180908,6.172119,-1.374023
25:29.8,-3.218018,5.411865,-1.66626
25:29.8,-3.236816,3.761719,-1.788818
25:29.8,-3.68042,2.482178,-1.162109
25:29.8,-5.646973,1.096924,0.02832
25:29.8,-7.435791,-0.4104,2.221191
25:29.8,-8,-3.352539,5.772461
25:29.8,-8,-7.322266,7.809814
25:29.8,2.209229,-8,7.999756
25:29.8,6.472412,-8,4.633789
25:29.9,3.247803,-8,1.543457
25:29.9,0.244629,-5.342529,0.521729
25:29.9,-0.649902,-1.800049,1.030518
25:29.9,-0.183594,-0.348877,1.614014
25:29.9,0.223877,-0.113037,1.206299
25:29.9,0.135742,-0.170898,0.686523
25:29.9,0.083496,-0.224854,0.510498
25:29.9,0.167725,-0.232666,0.381836
25:29.9,0.247803,-0.141602,0.170654
25:29.9,0.276367,0.136963,0.031982
25:30.0,0.267334,0.53833,-0.003662
25:30.0,0.185791,0.901367,-0.02124
25:30.0,-0.011475,1.27002,-0.138184
25:30.0,-0.259277,1.553711,-0.317139
25:30.0,-0.567627,1.659912,-0.476074
25:30.0,-0.952881,1.50708,-0.579346
25:30.0,-1.403809,0.995117,-0.550049
25:30.0,-1.811035,0.030518,-0.328613
25:30.0,-2.023438,-1.321777,0.217041
25:30.0,-1.742432,-3.093506,0.803955
25:30.1,-0.798584,-5.251709,0.590576
25:30.1,-0.005127,-6.673096,-0.233643
25:30.1,0.08667,-6.766846,-0.680176
25:30.1,0.09082,-6.353271,-0.753906
25:30.1,0.238525,-5.888428,-0.621582
25:30.1,0.061035,-5.178955,-0.437256
25:30.1,-0.315918,-4.477783,-0.33374
25:30.1,-0.609863,-3.816406,-0.123779
25:30.1,-0.854736,-3.218018,0.087891
25:30.1,-1.018066,-2.664551,0.264648
25:30.2,-1.055176,-2.190918,0.470459
25:30.2,-1.024414,-1.8479,0.734619
25:30.2,-0.984375,-1.588135,0.930908
25:30.2,-0.923828,-1.333984,1.075684
25:30.2,-0.871338,-1.111328,1.198975
25:30.2,-0.736328,-0.927246,1.246338
25:30.2,-0.522705,-0.822754,1.23584
25:30.2,-0.447754,-0.766846,1.098389
25:30.2,-0.539307,-0.714111,0.979004
25:30.2,-0.732666,-0.741943,0.862305
25:30.3,-1.01416,-0.825684,0.674805
25:30.3,-1.940674,-0.963135,0.767334
25:30.3,-3.325684,-1.246094,1.238281
25:30.3,-5.020508,-1.166504,1.205078
25:30.3,-6.043945,-0.462402,1.257568
25:30.3,-6.904541,1.414307,0.657959
25:30.3,-7.24292,5.278809,-0.176025
25:30.3,-6.372314,7.901855,0.864258
25:30.3,-7.852051,7.999756,2.134277
25:30.3,-7.191895,5.97876,-0.561768
25:30.4,-5.687256,2.031982,-0.577148
25:30.4,-5.449707,-0.101807,0.467285
25:30.4,-7.734619,-0.068604,0.248779
25:30.4,-8,-2.161865,1.054688
25:30.4,-8,-5.916748,4.874756
25:30.4,-8,-7.848633,7.733887
25:30.4,-1.25415,-8,7.999756
25:30.4,5.698242,-8,5.635742
25:30.4,3.726318,-8,4.238281
25:30.4,0.026611,-6.312012,2.075195
25:30.5,-1.55249,-2.974854,1.779785
25:30.5,-1.569092,-1.373535,2.455566
25:30.5,-1.232178,-0.571777,2.606689
25:30.5,-1.213867,-0.060303,2.178223
25:30.5,-1.427246,0.159668,1.316406
25:30.5,-1.4021,0.266113,0.711426
25:30.5,-1.184814,0.421631,0.540283
25:30.5,-0.996338,0.496094,0.435059
25:30.5,-0.740479,0.4729,0.351807
25:30.5,-0.502197,0.407715,0.301514
25:30.6,-0.353516,0.4104,0.168457
25:30.6,-0.239014,0.618408,-0.064453
25:30.6,-0.314453,1.090088,-0.345215
25:30.6,-0.548096,1.797607,-0.797852
25:30.6,-0.585205,2.466797,-1.314941
25:30.6,-0.651123,2.78418,-1.510742
25:30.6,-0.884766,2.519043,-1.398193
25:30.6,-1.332275,1.913818,-1.083008
25:30.6,-2.129639,1.143799,-0.365234
25:30.6,-2.720703,-0.216797,0.775879
25:30.7,-2.979004,-2.269531,2.27124
25:30.7,-2.138184,-4.755371,3.987793
25:30.7,0.036133,-7.214844,4.115967
25:30.7,1.460449,-8,1.894531
25:30.7,1.697998,-8,-0.216797
25:30.7,1.611328,-7.870361,-0.907227
25:30.7,1.328125,-6.682129,-0.468018
25:30.7,0.592285,-4.902588,-0.025879
25:30.7,-0.128418,-3.449707,0.056641
25:30.7,-0.585205,-2.290527,0.03833
25:30.8,-0.616699,-1.46167,0.074707
25:30.8,-0.515869,-0.913574,0.107666
25:30.8,-0.283691,-0.647461,0.092529
25:30.8,-0.08252,-0.481689,-0.047119
25:30.8,0.040039,-0.283691,-0.221924
25:30.8,0.103027,-0.126709,-0.421387
25:30.8,0.016602,-0.088135,-0.5979
25:30.8,-0.263428,-0.295654,-0.269775
25:30.8,-0.948975,-0.502441,0.193115
25:30.8,-2.084961,-0.32373,0.234863
25:30.9,-2.809814,0.145264,0.123047
25:30.9,-3.312744,1.188721,-0.800293
25:30.9,-3.323486,3.483643,-2.748047
25:30.9,-2.7229,5.987061,-3.218994
25:30.9,-2.177246,6.490723,-2.58667
25:30.9,-2.312744,6.116699,-2.388428
25:30.9,-3.185303,4.329102,-2.025635
25:30.9,-4.64209,2.187012,-0.467041
25:30.9,-7.599609,0.26709,2.38623
25:30.9,-7.991943,-2.917725,6.223877
25:31.0,-8,-7.790771,7.920166
25:31.0,4.391113,-8,7.999756
25:31.0,6.359619,-8,5.696533
25:31.0,2.230713,-8,2.654297
25:31.0,-0.625488,-4.173584,1.243896
25:31.0,-1.060547,-1.016357,1.356934
25:31.0,-0.525879,0.227051,1.489258
25:31.0,0.149658,0.220215,1.193359
25:31.0,0.262207,-0.002197,0.703125
25:31.0,0.25415,-0.147217,0.26709
25:31.1,0.217041,-0.114502,-0.032471
25:31.1,0.259766,-0.1521,-0.212891
25:31.1,0.325928,-0.206787,-0.317383
25:31.1,0.310547,-0.166748,-0.406494
25:31.1,0.218994,-0.116211,-0.421387
25:31.1,0.108154,-0.019775,-0.412109
25:31.1,-0.134521,0.331055,-0.543457
25:31.1,-0.511475,0.962402,-0.939209
25:31.1,-0.694824,1.710693,-1.37085
25:31.1,-0.62085,2.24707,-1.415039
25:31.2,-0.422363,2.192871,-1.091797
25:31.2,-0.340088,1.712402,-0.593506
25:31.2,-0.499268,1.196533,-0.016113
25:31.2,-0.987061,0.515625,0.674316
25:31.2,-1.387939,-0.729004,2.032715
25:31.2,-0.668945,-2.654541,3.365234
25:31.2,1.722168,-4.884277,3.4729
25:31.2,3.401123,-6.17749,2.782959
25:31.2,2.885254,-5.859375,2.079834
25:31.2,1.560059,-4.375732,1.558594
25:31.3,0.543945,-2.602539,1.275146
25:31.3,0.171387,-1.359619,1.162842
25:31.3,0.122803,-0.686768,1.077148
25:31.3,0.138428,-0.38208,0.966309
25:31.3,0.228027,-0.330322,0.806641
25:31.3,0.23877,-0.300293,0.641602
25:31.3,0.16333,-0.250488,0.546387
25:31.3,0.131348,-0.244873,0.475586
25:31.3,0.081543,-0.259521,0.414063
25:31.3,-0.057373,-0.293213,0.378174
25:31.4,-0.274902,-0.296631,0.469971
25:31.4,-0.604492,-0.244873,0.540283
25:31.4,-1.073975,-0.084961,0.504395
25:31.4,-1.524902,0.194824,0.364258
25:31.4,-1.854736,0.628662,0.015869
25:31.4,-2.385986,1.73999,-1.008789
25:31.4,-2.85498,3.753906,-1.829834
25:31.4,-2.73291,5.585205,-1.515625
25:31.4,-2.494385,5.712646,-1.390625
25:31.4,-2.552246,4.791748,-1.838135
25:31.5,-2.854736,3.08667,-1.675293
25:31.5,-3.619873,1.489746,-0.668701
25:31.5,-4.790283,0.482422,0.751465
25:31.5,-6.12793,-0.79834,3.022705
25:31.5,-6.656006,-3.906738,6.456299
25:31.5,-3.66748,-8,7.999756
25:31.5,5.88501,-8,6.567871
25:31.5,4.179932,-7.986816,2.094727
25:31.5,1.133057,-7.430176,0.707031
25:31.5,-0.009766,-3.685059,1.14917
25:31.6,-0.000977,-1.372559,1.82251
25:31.6,0.135254,-0.125,1.828125
25:31.6,0.21582,0.022949,1.199219
25:31.6,0.21582,-0.228271,0.733643
25:31.6,0.273682,-0.364258,0.584961
25:31.6,0.317383,-0.412842,0.361572
25:31.6,0.41626,-0.490967,0.164307
25:31.6,0.4021,-0.526367,0.07373
25:31.6,0.215576,-0.420654,0.020752
25:31.6,-0.061768,-0.302734,0.01123
25:31.7,-0.376709,-0.174072,0.070557
25:31.7,-0.800293,0.209961,-0.023438
25:31.7,-1.55249,1.505127,-0.961914
25:31.7,-1.792236,3.412354,-1.995605
25:31.7,-1.541748,4.769531,-2.179443
25:31.7,-1.119141,4.259277,-2.088135
25:31.7,-1.218506,2.899658,-1.909912
25:31.7,-1.659668,1.675049,-1.168213
25:31.7,-2.566406,0.684814,-0.012695
25:31.7,-3.31543,-1.074951,2.212891
25:31.8,-1.779297,-4.577393,5.03418
25:31.8,2.443359,-7.567139,5.292725
25:31.8,4.181641,-8,3.653076
25:31.8,2.382568,-7.155029,2.130615
25:31.8,0.504883,-4.273682,1.484863
25:31.8,0.06665,-1.990723,1.515625
25:31.8,0.133789,-1.01416,1.385742
25:31.8,0.11499,-0.674561,1.05957
25:31.8,0.105225,-0.541016,0.857178
25:31.8,0.075439,-0.407959,0.71875
25:31.9,0.013184,-0.268799,0.585205
25:31.9,-0.027344,-0.222412,0.525146
25:31.9,-0.05835,-0.270508,0.534668
25:31.9,-0.24707,-0.326416,0.509521
25:31.9,-0.630371,-0.316406,0.481201
25:31.9,-1.13208,-0.191406,0.479004
25:31.9,-1.677979,0.002441,0.457031
25:31.9,-2.165039,0.263184,0.318115
25:31.9,-2.73877,1.009277,-0.479736
25:31.9,-3.34082,2.972656,-1.730957
25:32.0,-3.383789,5.486328,-2.181885
25:32.0,-2.996094,6.636475,-2.156982
25:32.0,-3.003662,6.049316,-2.383789
25:32.0,-3.533936,4.54126,-2.194336
25:32.0,-4.593506,2.645752,-1.354248
25:32.0,-5.790527,0.918701,0.300781
25:32.0,-7.02417,-0.149902,2.53418
25:32.0,-8,-1.459473,4.761963
25:32.0,-7.866699,-4.881104,7.380371
25:32.0,-3.69458,-8,7.999756
25:32.1,4.205811,-8,5.998291
25:32.1,2.387939,-8,0.433594
25:32.1,0.963379,-7.722168,-0.253174
25:32.1,0.65625,-5.308838,1.320313
25:32.1,0.080811,-2.643555,2.040771
25:32.1,-0.954346,-0.375977,1.459229
25:32.1,-0.772705,0.423584,1.005371
25:32.1,-0.344238,0.143555,0.747314
25:32.1,-0.076416,-0.087646,0.304932
25:32.1,0.242432,-0.312988,0.062012
25:32.2,0.494141,-0.473877,-0.071045
25:32.2,0.610107,-0.498535,-0.269287
25:32.2,0.563232,-0.330566,-0.436035
25:32.2,0.473389,-0.087402,-0.513916
25:32.2,0.352051,0.097412,-0.519531
25:32.2,0.249756,0.228516,-0.415039
25:32.2,0.06665,0.488525,-0.336182
25:32.2,-0.279297,1.064697,-0.480713
25:32.2,-0.560791,1.827393,-0.925293
25:32.2,-0.678955,2.349121,-1.318848
25:32.3,-0.816406,2.439941,-1.312744
25:32.3,-1.015381,1.871582,-0.836182
25:32.3,-1.398193,1.080322,-0.07666
25:32.3,-1.958252,-0.104492,1.151123
25:32.3,-1.963623,-2.39917,3.164551
25:32.3,0.711426,-5.266846,4.30249
25:32.3,2.800781,-7.508057,3.64624
25:32.3,2.516113,-7.750244,2.366211
25:32.3,0.884277,-5.602051,1.339355
25:32.3,-0.184082,-3.227783,1.166748
25:32.4,-0.317383,-1.69165,1.526123
25:32.4,-0.190918,-0.815674,1.634277
25:32.4,-0.053223,-0.472168,1.383057
25:32.4,0.009766,-0.429199,1.030762
25:32.4,0.038086,-0.442139,0.685059
25:32.4,0.044922,-0.361328,0.459717
25:32.4,0.068115,-0.266357,0.371826
25:32.4,0.087402,-0.236816,0.38916
25:32.4,0.017578,-0.228027,0.464844
25:32.4,-0.107178,-0.199463,0.486572
25:32.5,-0.278076,-0.187988,0.447754
25:32.5,-0.555664,-0.181152,0.452148
25:32.5,-0.902344,-0.140381,0.450928
25:32.5,-1.365723,-0.00415,0.258545
25:32.5,-1.766113,0.204834,0.053223
25:32.5,-2.137451,0.826172,-0.505127
25:32.5,-2.688965,2.574707,-2.055176
25:32.5,-2.838623,4.860596,-2.987549
25:32.5,-2.572754,5.953857,-2.450439
25:32.5,-2.435059,5.403076,-2.095703
25:32.6,-2.635254,4.054932,-2.004395
25:32.6,-3.358154,2.313477,-1.312744
25:32.6,-4.351318,0.806152,0.091553
25:32.6,-5.782715,0.149902,1.700928
25:32.6,-7.162109,-1.430664,4.363525
25:32.6,-6.620117,-5.491943,7.636475
25:32.6,-0.66333,-8,7.999756
25:32.6,6.140381,-8,5.834473
25:32.6,2.366211,-7.793213,1.457275
25:32.6,-0.005127,-5.551514,0.780762
25:32.7,-0.427002,-2.063232,1.387695
25:32.7,-0.103516,-0.499756,2.000732
25:32.7,0.129639,-0.110596,1.789063
25:32.7,0.205078,-0.348145,1.131836
25:32.7,0.19043,-0.506348,0.661621
25:32.7,0.128418,-0.372314,0.291016
25:32.7,0.239014,-0.340088,0.167725
25:32.7,0.326172,-0.335938,0.147461
25:32.7,0.359375,-0.251465,0.080322
25:32.7,0.300293,-0.157471,-0.009766
25:32.8,0.171387,-0.050049,-0.050293
25:32.8,0.018311,0.056641,-0.064209
25:32.8,-0.119141,0.18335,-0.099365
25:32.8,-0.320313,0.465332,-0.272705
25:32.8,-0.670654,1.05957,-0.607178
25:32.8,-0.949463,1.952637,-1.381104
25:32.8,-0.881836,2.840332,-2.031006
25:32.8,-0.756592,3.081055,-1.924561
25:32.8,-0.716797,2.251221,-1.421387
25:32.8,-0.969238,1.388916,-0.735107
25:32.9,-1.681152,0.640625,0.164307
25:32.9,-2.391846,-0.748535,1.671631
25:32.9,-1.88208,-3.474365,4.298828
25:32.9,1.699951,-6.616699,4.662842
25:32.9,3.905762,-8,3.929688
25:32.9,2.765137,-7.204346,2.871094
25:32.9,0.814697,-4.661865,1.868896
25:32.9,-0.044434,-2.33252,1.519775
25:32.9,-0.105957,-1.036133,1.462646
25:32.9,0.010742,-0.556396,1.360596
25:33.0,0.10791,-0.471191,1.149414
25:33.0,0.15625,-0.447754,0.911133
25:33.0,0.072998,-0.359619,0.670166
25:33.0,-0.009766,-0.227783,0.531494
25:33.0,-0.066406,-0.131592,0.567871
25:33.0,-0.122314,-0.131592,0.607666
25:33.0,-0.248291,-0.203613,0.548584
25:33.0,-0.522949,-0.218018,0.542969
25:33.0,-0.928711,-0.158936,0.59082
25:33.0,-1.534668,0.007568,0.527588
25:33.1,-2.059326,0.186523,0.52002
25:33.1,-2.560303,0.632813,0.122559
25:33.1,-3.238281,1.952881,-1.373779
25:33.1,-3.494873,4.259033,-2.552002
25:33.1,-3.08252,6.070068,-2.443848
25:33.1,-2.845703,6.390381,-2.347656
25:33.1,-3.213867,5.484863,-2.530029
25:33.1,-3.925049,3.637939,-2.046631
25:33.1,-5.051758,1.651611,-1.054199
25:33.1,-6.35376,0.252197,0.578369
25:33.2,-7.547607,-0.394043,2.743652
25:33.2,-8,-2.402344,6.006592
25:33.2,-6.777588,-6.539063,7.999756
25:33.2,0.06665,-8,7.868164
25:33.2,4.201172,-8,4.451416
25:33.2,1.556885,-7.942139,0.00415
25:33.2,0.207031,-6.517578,0.453613
25:33.2,-0.08667,-3.731201,2.032471
25:33.2,-0.512207,-1.406982,2.288574
25:33.2,-0.644287,-0.058594,1.63916
25:33.3,-0.458008,0.049316,0.883057
25:33.3,-0.241211,-0.234863,0.282471
25:33.3,-0.019287,-0.284912,0.01123
25:33.3,0.214355,-0.331299,0.008301
25:33.3,0.405273,-0.354248,-0.021973
25:33.3,0.466064,-0.251465,-0.164063
25:33.3,0.44458,-0.097168,-0.290039
25:33.3,0.374023,0.088135,-0.313721
25:33.3,0.293457,0.229248,-0.271973
25:33.3,0.202393,0.31543,-0.227539
25:33.4,0.125,0.431152,-0.22168
25:33.4,0.008789,0.657471,-0.300293
25:33.4,-0.177734,1.12793,-0.516846
25:33.4,-0.348389,1.726563,-0.845459
25:33.4,-0.593018,2.205566,-1.165283
25:33.4,-0.791992,2.193848,-1.065674
25:33.4,-1.159424,1.698486,-0.494873
25:33.4,-1.734619,0.855957,0.362549
25:33.4,-2.359619,-0.421875,1.650879
25:33.4,-2.458008,-2.90625,3.859863
25:33.5,1.20874,-5.826904,4.657715
25:33.5,3.148682,-7.505371,3.87085
25:33.5,2.611816,-7.619385,2.723877
25:33.5,0.928467,-5.45752,1.5
25:33.5,-0.288086,-3.099609,1.052002
25:33.5,-0.529297,-1.596924,1.321289
25:33.5,-0.325195,-0.790039,1.55957
25:33.5,-0.110107,-0.507813,1.481934
25:33.5,-0.028809,-0.446289,1.142334
25:33.5,-0.070801,-0.406738,0.755371
25:33.6,-0.05542,-0.350586,0.526367
25:33.6,-0.043213,-0.276611,0.474121
25:33.6,-0.051758,-0.19873,0.509766
25:33.6,-0.081787,-0.112793,0.581543
25:33.6,-0.160645,-0.073242,0.588379
25:33.6,-0.321533,-0.094238,0.579834
25:33.6,-0.572754,-0.148926,0.518066
25:33.6,-1.017578,-0.114014,0.405029
25:33.6,-1.5896,0.047852,0.269775
25:33.6,-2.051025,0.503174,-0.171875
25:33.7,-2.746338,2.199219,-1.848389
25:33.7,-2.890381,4.547363,-2.926025
25:33.7,-2.518066,5.668701,-2.711182
25:33.7,-2.091797,5.042236,-2.282227
25:33.7,-2.125488,3.694824,-1.99292
25:33.7,-2.475342,2.138916,-1.44751
25:33.7,-3.087158,0.962646,-0.35376
25:33.7,-4.325439,0.490479,1.032959
25:33.7,-5.683838,-0.724365,3.320801
25:33.7,-6.927246,-4.633057,6.769043
25:33.8,-0.463867,-7.955322,7.999756
25:33.8,6.459229,-8,6.227051
25:33.8,3.29126,-8,2.001709
25:33.8,0.46875,-6.172852,1.09375
25:33.8,-0.35498,-2.406494,1.368652
25:33.8,-0.352051,-0.71167,1.503418
25:33.8,-0.050537,-0.18335,1.476807
25:33.8,0.206055,-0.395752,1.151123
25:33.8,0.14502,-0.51001,0.708008
25:33.8,0.104492,-0.342041,0.472412
25:33.9,0.19751,-0.250244,0.300293
25:33.9,0.196289,-0.193604,0.122314
25:33.9,0.078369,-0.141357,0.020752
25:33.9,-0.137695,-0.128418,0.013916
25:33.9,-0.459229,-0.022705,-0.081055
25:33.9,-0.995117,0.599854,-0.496582
25:33.9,-1.637207,1.961914,-1.359863
25:33.9,-1.834473,3.546631,-2.34668
25:33.9,-1.70752,4.438721,-2.244629
25:33.9,-1.359375,3.578857,-1.702881
25:34.0,-1.019287,2.0979,-1.202148
25:34.0,-1.556641,1.274414,-0.756104
25:34.0,-2.206787,0.329346,0.274658
25:34.0,-3.025146,-1.206055,1.899658
25:34.0,-2.602539,-3.924561,4.476074
25:34.0,1.447021,-7.143066,5.619141
25:34.0,4.824219,-8,4.623047
25:34.0,3.336914,-7.570801,3.080322
25:34.0,1.265381,-5.125977,1.621338
25:34.0,0.041016,-2.697266,1.081299
25:34.1,-0.186523,-1.369141,1.121582
25:34.1,-0.040771,-0.80542,1.217285
25:34.1,0.05835,-0.6521,1.175049
25:34.1,0.052002,-0.549561,0.883545
25:34.1,-0.009033,-0.371582,0.581787
25:34.1,-0.028809,-0.192871,0.410156
25:34.1,-0.043701,-0.117432,0.308105
25:34.1,-0.051025,-0.076416,0.398682
25:34.1,-0.11499,-0.108643,0.593506
25:34.1,-0.306885,-0.181885,0.786621
25:34.2,-0.740723,-0.26123,0.829834
25:34.2,-1.431641,-0.349609,0.848389
25:34.2,-2.370361,-0.36792,0.769531
25:34.2,-2.997559,0.139404,0.57251
25:34.2,-4.060303,2.126465,-1.297119
25:34.2,-4.03418,5.775635,-2.456299
25:34.2,-3.465088,7.997803,-2.043213
25:34.2,-3.244873,7.445313,-1.950439
25:34.2,-3.605469,5.123047,-1.986084
25:34.2,-4.150391,2.557129,-1.286377
25:34.3,-5.100342,0.597656,-0.086182
25:34.3,-6.281982,-0.218018,1.476074
25:34.3,-7.6604,-1.033691,3.445557
25:34.3,-8,-4.327637,6.890137
25:34.3,-3.122314,-7.55835,7.999756
25:34.3,3.527344,-8,6.079102
25:34.3,3.545654,-8,1.232422
25:34.3,1.149414,-7.393555,-0.657471
25:34.3,0.484863,-5.428223,0.349121
25:34.3,0.115967,-3.227783,1.217041
25:34.4,-0.44873,-1.311035,1.166504
25:34.4,-0.532471,-0.326172,0.807617
25:34.4,-0.401367,-0.134521,0.472168
25:34.4,-0.186035,-0.172607,0.254639
25:34.4,0.017578,-0.098389,-0.055908
25:34.4,0.146729,-0.01709,-0.443848
25:34.4,0.238037,0.011719,-0.609375
25:34.4,0.235107,0.045898,-0.515137
25:34.4,0.137695,0.177246,-0.381592
25:34.4,-0.041016,0.419189,-0.221436
25:34.5,-0.197998,0.779297,-0.122314
25:34.5,-0.354004,1.325195,-0.29126
25:34.5,-0.567139,1.806152,-1.035645
25:34.5,-0.693115,2.288574,-2.261963
25:34.5,-0.805908,2.65332,-3.022217
25:34.5,-1.371338,2.062988,-3.051025
25:34.5,-2.443359,0.679688,-1.844482
25:34.5,-3.282227,-2.202148,0.972168
25:34.5,-2.385498,-6.032471,3.684326
25:34.5,-0.358154,-8,3.206787
25:34.6,1.608887,-8,1.628418
25:34.6,2.033447,-7.807129,1.0896
25:34.6,1.362549,-6.477295,1.070557
25:34.6,1.331299,-5.883789,0.987549
25:34.6,1.211426,-5.321045,0.988037
25:34.6,0.717041,-4.696533,1.096924
25:34.6,0.247559,-4.130859,1.442627
25:34.6,-0.181152,-3.485107,1.788086
25:34.6,-0.677734,-2.831787,1.804688
25:34.6,-0.966064,-2.215332,1.943359
25:34.7,-1.082764,-1.734619,1.981445
25:34.7,-1.249756,-1.265625,1.75
25:34.7,-1.309082,-0.946777,1.354004
25:34.7,-1.458496,-0.6875,1.109375
25:34.7,-1.620361,-0.437988,0.845703
25:34.7,-1.878906,-0.306152,0.68457
25:34.7,-2.282959,-0.488525,1.091553
25:34.7,-3.001221,-0.841797,1.525879
25:34.7,-4.659912,-1.141113,1.619385
25:34.7,-6.385254,-0.630127,1.303467
25:34.8,-7.680176,0.904541,0.356934
25:34.8,-7.952393,4.586914,-1.150391
25:34.8,-7.994873,7.636963,-2.243164
25:34.8,-8,7.999756,-2.278564
25:34.8,-8,5.458252,-2.313721
25:34.8,-7.201172,1.465576,-1.296143
25:34.8,-7.737793,-1.170898,-0.233887
25:34.8,-8,-1.122803,-0.312988
25:34.8,-8,-4.325928,2.131592
25:34.8,-8,-7.599609,6.950684
25:34.9,-8,-8,7.999756
25:34.9,0.459229,-8,7.999756
25:34.9,4.659912,-8,7.322266
25:34.9,2.084717,-8,3.541504
25:34.9,-0.68457,-6.30542,2.175049
25:34.9,-1.918457,-3.171631,3.737549
25:34.9,-1.891846,-1.029541,4.404785
25:34.9,-2.04126,0.501953,3.56543
25:34.9,-2.095459,0.794189,2.38916
25:34.9,-1.856201,0.472656,1.482666
25:35.0,-1.600342,0.359131,0.94873
25:35.0,-1.377197,0.319824,0.521484
25:35.0,-1.177246,0.263428,0.204834
25:35.0,-0.925781,0.195801,0.238281
25:35.0,-0.737061,0.241211,0.334229
25:35.0,-0.66333,0.370117,0.292725
25:35.0,-0.559326,0.573242,0.244141
25:35.0,-0.551514,1.026855,0.115234
25:35.0,-0.738037,1.832031,-0.517334
25:35.0,-0.915283,2.61377,-1.647705
25:35.1,-1.011475,2.779053,-2.433594
25:35.1,-0.990479,2.38208,-2.309814
25:35.1,-0.915283,1.724854,-1.616211
25:35.1,-1.070068,1.278564,-0.944824
25:35.1,-1.490479,0.904541,-0.27417
25:35.1,-1.987305,0.118408,0.561523
25:35.1,-2.590576,-1.270508,1.678711
25:35.1,-2.695068,-3.154297,3.443848
25:35.1,-1.060303,-5.901123,5.014648
25:35.1,0.975098,-8,3.706299
25:35.2,1.757568,-8,1.105469
25:35.2,1.64502,-7.989258,-0.391846
25:35.2,1.225586,-7.257813,-0.100098
25:35.2,0.303467,-5.105469,0.412842
25:35.2,-0.247803,-3.425049,0.361328
25:35.2,-0.658203,-2.179443,0.28833
25:35.2,-0.646484,-1.380371,0.454346
25:35.2,-0.326416,-1.018311,0.586426
25:35.2,-0.086914,-0.816406,0.494141
25:35.2,0.132324,-0.701416,0.289063
25:35.3,0.245361,-0.5625,0.143799
25:35.3,0.310547,-0.410889,0.04834
25:35.3,0.180176,-0.294189,-0.212158
25:35.3,-0.004639,-0.313477,-0.326904
25:35.3,-0.397705,-0.436035,-0.06665
25:35.3,-1.037109,-0.501709,0.208984
25:35.3,-2.114014,-0.37915,0.359863
25:35.3,-2.939941,-0.039795,0.28833
25:35.3,-3.628662,0.799072,-1.055664
25:35.3,-3.710693,3.249268,-3.725098
25:35.4,-3.299805,5.927246,-4.335449
25:35.4,-2.676514,6.356201,-3.615479
25:35.4,-2.622314,5.946045,-3.846191
25:35.4,-3.411377,4.275391,-3.21582
25:35.4,-4.924805,2.53833,-1.656494
25:35.4,-7.633545,0.161621,1.412109
25:35.4,-8,-6.739258,7.039307
25:35.4,-1.763916,-8,7.999756
25:35.4,3.280273,-8,7.999756
25:35.4,2.330322,-8,5.890869
25:35.5,1.056885,-5.704346,4.219238
25:35.5,0.478271,-2.251709,2.534912
25:35.5,0.272217,-0.800537,1.243408
25:35.5,0.521729,-0.795654,1.002441
25:35.5,0.577393,-0.864746,0.800781
25:35.5,0.362549,-0.604248,0.461182
25:35.5,0.329102,-0.36792,0.254639
25:35.5,0.367432,-0.237549,0.059082
25:35.5,0.314453,-0.113281,-0.080078
25:35.5,0.151611,-0.019043,-0.131348
25:35.6,-0.036377,0.076172,-0.229492
25:35.6,-0.4021,0.37207,-0.731445
25:35.6,-0.863281,0.985107,-1.626465
25:35.6,-1.048096,1.932373,-2.369141
25:35.6,-0.848389,2.813232,-2.505615
25:35.6,-0.506348,2.965332,-2.125732
25:35.6,-0.387451,2.421875,-1.598633
25:35.6,-0.511719,1.685547,-1.036133
25:35.6,-0.609863,1.05127,-0.426514
25:35.6,-0.794922,0.652588,0.102539
25:35.7,-1.402344,0.309082,0.784424
25:35.7,-2.430176,-0.754395,2.413086
25:35.7,-2.085693,-3.127197,4.310059
25:35.7,0.608887,-5.634277,4.627197
25:35.7,2.410889,-6.573242,3.483398
25:35.7,2.082031,-6.078613,2.187744
25:35.7,1.239014,-4.796387,1.56665
25:35.7,0.61792,-3.239258,1.440674
25:35.7,0.139648,-1.9646,1.398193
25:35.7,-0.112305,-1.036133,1.260498
25:35.8,-0.154053,-0.516357,0.987305
25:35.8,-0.07959,-0.339355,0.722412
25:35.8,0.053955,-0.40332,0.45874
25:35.8,0.157227,-0.542725,0.241211
25:35.8,0.205566,-0.541992,0.173096
25:35.8,0.143066,-0.459717,0.190918
25:35.8,0.067139,-0.3479,0.196777
25:35.8,-0.078857,-0.265869,0.184814
25:35.8,-0.251221,-0.250732,0.353271
25:35.8,-0.592041,-0.318604,0.561768
25:35.9,-1.149658,-0.436279,0.597656
25:35.9,-2.006104,-0.244629,0.376465
25:35.9,-2.672852,0.131592,0.128418
25:35.9,-3.000732,0.76709,-0.471191
25:35.9,-3.28418,2.298828,-1.933594
25:35.9,-3.049805,4.659668,-2.681152
25:35.9,-2.561523,5.986084,-2.421143
25:35.9,-2.628418,5.72583,-2.343506
25:35.9,-2.303955,4.473633,-2.439697
25:35.9,-2.391357,2.47998,-1.785156
25:36.0,-2.190674,0.649902,-0.676025
25:36.0,-3.226807,0.320068,0.294434
25:36.0,-5.765869,-0.240479,2.546143
25:36.0,-8,-3.854736,7.480713
25:36.0,-2.914063,-7.439209,7.999756
25:36.0,3.751465,-8,7.999756
25:36.0,2.448975,-8,6.477051
25:36.0,-0.018311,-5.249512,3.875
25:36.0,-0.645996,-1.925537,2.38916
25:36.0,-0.483154,-0.239502,1.353516
25:36.1,-0.165771,-0.183594,0.895752
25:36.1,0.021729,-0.383789,0.630859
25:36.1,-0.07959,-0.26001,0.610107
25:36.1,-0.14624,-0.148193,0.650879
25:36.1,-0.172852,-0.13916,0.403076
25:36.1,-0.329834,-0.113525,0.033447
25:36.1,-0.523926,-0.209961,-0.053955
25:36.1,-0.926758,-0.275879,-0.171143
25:36.1,-1.391357,-0.000488,-0.754639
25:36.1,-2.036133,1.161621,-2.450684
25:36.2,-2.365723,3.160156,-3.718262
25:36.2,-2.23999,4.60083,-3.321289
25:36.2,-1.646729,4.386963,-2.296387
25:36.2,-1.422607,3.351807,-1.804932
25:36.2,-1.590088,2.305908,-1.718506
25:36.2,-1.884521,1.3396,-1.129395
25:36.2,-2.699219,0.704834,0.07959
25:36.2,-3.978271,0.062744,1.550781
25:36.2,-5.456787,-2.390625,4.953613
25:36.2,-1.997559,-6.597412,7.999756
25:36.3,3.750977,-8,7.267334
25:36.3,3.596436,-8,4.25415
25:36.3,0.970459,-6.836426,2.369385
25:36.3,-0.241211,-3.185547,1.78833
25:36.3,-0.364746,-1.0979,1.729492
25:36.3,-0.251221,-0.250732,1.569092
25:36.3,-0.14502,-0.080566,1.322754
25:36.3,0.006104,-0.185791,1.050781
25:36.3,0.072266,-0.23999,0.725586
25:36.3,0.078857,-0.181885,0.431641
25:36.4,0.056396,-0.114258,0.291992
25:36.4,0.050049,-0.093018,0.341309
25:36.4,0.008301,-0.176514,0.417969
25:36.4,-0.253418,-0.297607,0.487061
25:36.4,-0.810791,-0.384766,0.546631
25:36.4,-1.637939,-0.461182,0.619873
25:36.4,-2.66748,-0.292969,0.547363
25:36.4,-3.330811,0.409424,-0.175537
25:36.4,-4.064453,2.7146,-2.470947
25:36.4,-3.723633,6.46875,-3.369629
25:36.5,-3.107178,7.902832,-2.385498
25:36.5,-2.903076,6.18335,-2.377686
25:36.5,-3.237793,4.048828,-2.583496
25:36.5,-3.734131,1.783936,-1.57251
25:36.5,-4.513184,0.496338,-0.215576
25:36.5,-5.840332,-0.137207,1.478271
25:36.5,-7.422852,-1.113281,3.588379
25:36.5,-7.532227,-5.103516,7.999756
25:36.5,-1.605957,-8,7.98291
25:36.5,4.87915,-8,7.842285
25:36.6,1.98999,-8,3.473633
25:36.6,-0.207764,-5.288574,1.812988
25:36.6,-0.329834,-2.435791,1.854248
25:36.6,-0.041016,-0.961914,1.805908
25:36.6,0.064453,-0.486816,1.513428
25:36.6,0.178711,-0.534424,1.037354
25:36.6,0.178955,-0.578369,0.722656
25:36.6,0.126221,-0.4104,0.465332
25:36.6,0.160645,-0.279785,0.293701
25:36.6,0.204346,-0.260742,0.196045
25:36.7,0.178467,-0.179932,0.084961
25:36.7,0.088135,-0.106934,0.025146
25:36.7,-0.057861,-0.087158,0.009766
25:36.7,-0.250488,-0.062988,-0.055176
25:36.7,-0.837891,0.585449,-0.494873
25:36.7,-1.342773,1.949707,-1.512451
25:36.7,-1.366943,3.426025,-2.313721
25:36.7,-1.187256,3.90332,-2.253174
25:36.7,-0.97168,2.810059,-1.815674
25:36.7,-1.134521,1.491699,-1.147217
25:36.8,-1.795898,0.561768,-0.165771
25:36.8,-2.794678,-0.886963,1.345459
25:36.8,-2.602539,-3.488525,3.040039
25:36.8,-0.350098,-5.976563,3.883301
25:36.8,2.048096,-6.939697,4.139893
25:36.8,2.318604,-6.156494,3.901855
25:36.8,0.966797,-4.384521,2.843018
25:36.8,-0.101807,-2.414795,1.664063
25:36.8,-0.354736,-0.94751,1.024658
25:36.8,-0.217773,-0.314697,0.751953
25:36.9,0.017822,-0.297363,0.616943
25:36.9,0.227051,-0.477295,0.608643
25:36.9,0.35083,-0.524414,0.664795
25:36.9,0.412109,-0.446289,0.697266
25:36.9,0.394043,-0.393555,0.727295
25:36.9,0.421143,-0.370117,0.715332
25:36.9,0.522461,-0.33374,0.611328
25:36.9,0.48584,-0.319336,0.529053
25:36.9,0.436768,-0.279785,0.511719
25:36.9,0.368164,-0.187744,0.538086
25:37.0,0.290283,-0.063477,0.587891
25:37.0,0.271973,0.01416,0.676514
25:37.0,0.228271,0.075439,0.733887
25:37.0,0.135742,0.119385,0.735352
25:37.0,0.024658,0.104004,0.782715
25:37.0,-0.126953,0.089844,0.838867
25:37.0,-0.393311,0.127686,0.744385
25:37.0,-0.676758,0.277588,0.70874
25:37.0,-0.881348,0.526123,0.665283
25:37.0,-1.060059,0.787842,0.570557
25:37.1,-1.155518,1.134521,0.522949
25:37.1,-1.265381,1.544678,0.4375
25:37.1,-1.351807,1.963135,0.104736
25:37.1,-1.36377,2.460205,-0.267822
25:37.1,-1.585938,3.179199,-0.62793
25:37.1,-1.934326,3.850098,-1.029297
25:37.1,-2.26001,4.090088,-1.275391
25:37.1,-2.631592,3.655518,-1.53833
25:37.1,-2.93457,3.024902,-1.815674
25:37.1,-4.168945,2.025879,-1.749268
25:37.2,-6.097168,0.895264,-0.455322
25:37.2,-8,-0.307373,2.020508
25:37.2,-8,-1.899902,5.054199
25:37.2,-8,-5.865967,7.920654
25:37.2,-5.302979,-7.928711,7.988281
25:37.2,4.70166,-8,7.999756
25:37.2,2.670898,-8,2.813721
25:37.2,-0.61792,-6.87793,0.426514
25:37.2,-1.226074,-3.558105,1.191162
25:37.2,-0.961426,-1.239746,2.603271
25:37.3,-0.614014,-0.133545,2.44873
25:37.3,-0.473633,-0.135742,1.56543
25:37.3,-0.264648,-0.5354,0.902588
25:37.3,-0.142334,-0.705566,0.565674
25:37.3,0.007324,-0.751221,0.506348
25:37.3,0.125977,-0.740967,0.543701
25:37.3,0.150635,-0.656494,0.536621
25:37.3,0.120361,-0.498535,0.454346
25:37.3,0.021729,-0.321777,0.365967
25:37.3,-0.069092,-0.170166,0.312256
25:37.4,-0.140137,-0.050537,0.267578
25:37.4,-0.171143,0.040771,0.223633
25:37.4,-0.170654,0.084473,0.168945
25:37.4,-0.188965,0.118896,0.095703
25:37.4,-0.167725,0.119629,0.012695
25:37.4,-0.108643,0.10498,-0.053955
25:37.4,-0.044922,0.07251,-0.061768
25:37.4,0.077637,0.018311,-0.031006
25:37.4,0.200439,-0.067383,-0.00293
25:37.4,0.268799,-0.150146,0.043213
25:37.5,0.340088,-0.193848,0.117188
25:37.5,0.404785,-0.214844,0.192383
25:37.5,0.439453,-0.220459,0.278076
25:37.5,0.466553,-0.203125,0.415771
25:37.5,0.497803,-0.252686,0.616943
25:37.5,0.577637,-0.437012,0.84375
25:37.5,0.690674,-0.666504,1.056885
25:37.5,0.760986,-0.886719,1.194092
25:37.5,0.848633,-1.09668,1.293701
25:37.5,0.977539,-1.258789,1.411621
25:37.6,1.041992,-1.366455,1.406006
25:37.6,0.979492,-1.35791,1.28125
25:37.6,0.798828,-1.163086,1.140381
25:37.6,0.622559,-0.932373,0.987549
25:37.6,0.486816,-0.744141,0.8479
25:37.6,0.364746,-0.55249,0.679199
25:37.6,0.275391,-0.457275,0.494873
25:37.6,0.128662,-0.475098,0.352295
25:37.6,-0.135742,-0.511475,0.327393
25:37.6,-0.51709,-0.480957,0.406494
25:37.7,-0.954102,-0.280273,0.291504
25:37.7,-1.4646,0.115234,0.145508
25:37.7,-1.7854,0.580811,-0.030518
25:37.7,-1.80957,0.953613,-0.346436
25:37.7,-1.807617,1.424316,-0.835205
25:37.7,-1.823486,2.516113,-1.454346
25:37.7,-1.964111,3.830811,-1.767334
25:37.7,-1.830322,4.404541,-1.845215
25:37.7,-2.07666,4.23584,-2.04126
25:37.7,-2.713867,3.251953,-1.914063
25:37.8,-4.060791,1.712891,-0.687988
25:37.8,-6.165771,0.239502,1.189453
25:37.8,-8,-1.457764,3.843506
25:37.8,-7.894775,-5.713867,7.999756
25:37.8,-3.147705,-8,7.981689
25:37.8,4.071045,-8,7.650635
25:37.8,3.053955,-8,5.10376
25:37.8,0.216064,-5.460449,2.781982
25:37.8,-0.93335,-2.013916,1.332031
25:37.8,-0.747803,-0.333008,1.605957
25:37.9,-0.199951,0.117432,1.915771
25:37.9,0.218994,-0.183105,1.781494
25:37.9,0.241699,-0.523682,1.342773
25:37.9,0.086182,-0.61499,0.904785
25:37.9,0.029297,-0.680908,0.606445
25:37.9,0.051025,-0.688477,0.467041
25:37.9,0.103516,-0.599121,0.435303
25:37.9,0.108154,-0.464355,0.453369
25:37.9,0.044189,-0.324951,0.437256
25:37.9,-0.044678,-0.182129,0.378906
25:38.0,-0.156006,-0.053955,0.321045
25:38.0,-0.239014,-0.000732,0.312256
25:38.0,-0.257813,-0.070801,0.307861
25:38.0,-0.239258,-0.15625,0.262695
25:38.0,-0.174316,-0.240967,0.244385
25:38.0,-0.089111,-0.349854,0.251221
25:38.0,-0.030273,-0.450195,0.289307
25:38.0,0.008057,-0.475098,0.39502
25:38.0,0.020508,-0.464111,0.505615
25:38.0,-0.005127,-0.44458,0.680908
25:38.1,0.002197,-0.594238,1.035889
25:38.1,0.220215,-1.089111,1.533447
25:38.1,0.541016,-1.734131,1.876953
25:38.1,0.730225,-2.204346,2.013184
25:38.1,0.7771,-2.39917,2.101074
25:38.1,0.715576,-2.286377,2.088623
25:38.1,0.554688,-1.974609,2.032959
25:38.1,0.39917,-1.653076,1.986816
25:38.1,0.326416,-1.437256,1.901367
25:38.1,0.30249,-1.344971,1.744141
25:38.2,0.247803,-1.279297,1.488281
25:38.2,0.139404,-1.19165,1.217285
25:38.2,0.041016,-1.069092,1.042236
25:38.2,-0.12207,-0.905762,0.983643
25:38.2,-0.343506,-0.760498,0.958984
25:38.2,-0.523193,-0.685547,0.991211
25:38.2,-0.79248,-0.559814,0.977051
25:38.2,-1.007324,-0.408203,0.76123
25:38.2,-1.182861,-0.320801,0.543701
25:38.2,-1.650146,-0.107178,0.391357
25:38.3,-2.156494,0.265137,-0.226563
25:38.3,-2.594727,1.088379,-1.529785
25:38.3,-2.924805,2.990723,-2.808838
25:38.3,-2.699219,4.669678,-2.80835
25:38.3,-2.123779,4.925049,-2.271973
25:38.3,-2.177734,4.509277,-2.279785
25:38.3,-2.848389,3.197998,-1.875977
25:38.3,-3.716553,1.498047,-0.576172
25:38.3,-5.017578,0.356934,1.20459
25:38.3,-6.212646,-1.148682,3.618896
25:38.4,-5.760986,-4.353027,7.0896
25:38.4,-1.742676,-7.108887,7.999756
25:38.4,3.501953,-8,6.632813
25:38.4,2.766357,-7.815186,4.43042
25:38.4,0.624268,-4.858887,2.924316
25:38.4,-0.260498,-1.940918,1.892578
25:38.4,-0.391113,-0.4375,1.790527
25:38.4,-0.247803,0.064697,1.637451
25:38.4,-0.049561,-0.090088,1.303223
25:38.4,0.044189,-0.304688,0.983643
25:38.5,0.062988,-0.40332,0.709229
25:38.5,0.031494,-0.394043,0.430176
25:38.5,0.057861,-0.35083,0.249268
25:38.5,0.092285,-0.292236,0.174805
25:38.5,0.083984,-0.219727,0.183838
25:38.5,0.04248,-0.113037,0.201416
25:38.5,-0.016846,-0.030762,0.20166
25:38.5,-0.07666,0.038818,0.216309
25:38.5,-0.156494,0.051758,0.217285
25:38.5,-0.205078,0.030762,0.227539
25:38.6,-0.172607,-0.027588,0.257813
25:38.6,-0.124023,-0.168945,0.274658
25:38.6,-0.079834,-0.320313,0.288574
25:38.6,-0.021973,-0.420898,0.387939
25:38.6,0.044678,-0.522705,0.524902
25:38.6,0.086182,-0.622314,0.668945
25:38.6,0.094971,-0.765137,0.838623
25:38.6,0.136475,-0.95166,1.121338
25:38.6,0.275146,-1.31958,1.501953
25:38.6,0.556396,-1.80835,1.836914
25:38.7,0.816406,-2.219238,1.967285
25:38.7,0.898682,-2.425049,1.938721
25:38.7,0.786865,-2.344238,1.817139
25:38.7,0.610596,-2.105225,1.679932
25:38.7,0.474121,-1.880859,1.555176
25:38.7,0.410156,-1.752441,1.442383
25:38.7,0.36377,-1.682373,1.318604
25:38.7,0.243164,-1.551758,1.234131
25:38.7,0.071045,-1.306396,1.147217
25:38.7,-0.11084,-1.002441,1.011719
25:38.8,-0.239746,-0.768799,0.893555
25:38.8,-0.330078,-0.640137,0.843018
25:38.8,-0.477783,-0.553955,0.841309
25:38.8,-0.713135,-0.444092,0.768799
25:38.8,-0.962646,-0.241211,0.618896
25:38.8,-1.141113,-0.029053,0.520752
25:38.8,-1.366699,0.14502,0.38208
25:38.8,-1.599854,0.43042,0.085205
25:38.8,-1.691895,0.799316,-0.217773
25:38.8,-1.786865,1.234375,-0.645996
25:38.9,-1.972656,1.967285,-1.346191
25:38.9,-2.039795,2.965088,-1.899414
25:38.9,-1.861572,3.712158,-1.886475
25:38.9,-1.770264,3.887207,-1.9375
25:38.9,-2.003174,3.48584,-1.856445
25:38.9,-2.838867,2.305908,-1.137451
25:38.9,-4.208984,0.846924,0.408203
25:38.9,-5.756348,-0.050537,2.10498
25:38.9,-7.186035,-1.481934,4.269775
25:38.9,-6.670898,-5.149658,7.427246
25:39.0,-1.670166,-8,7.567871
25:39.0,3.875732,-8,5.543701
25:39.0,2.538086,-7.928223,2.718018
25:39.0,0.591797,-6.610352,1.966309
25:39.0,-0.316162,-3.170654,1.67041
25:39.0,-0.262695,-1.363525,1.905029
25:39.0,0.020752,-0.66626,2.057617
25:39.0,0.088623,-0.748047,1.787598
25:39.0,0.22583,-1.343262,1.535889
25:39.0,0.300293,-1.66626,1.483887
25:39.1,0.406982,-1.860596,1.531494
25:39.1,0.544922,-2.090088,1.622803
25:39.1,0.551025,-2.144043,1.687012
25:39.1,0.405273,-1.987305,1.646484
25:39.1,0.223145,-1.729492,1.555664
25:39.1,0.047363,-1.52002,1.488525
25:39.1,-0.025391,-1.416748,1.484863
25:39.1,-0.041748,-1.367432,1.479736
25:39.1,-0.086426,-1.320557,1.384521
25:39.1,-0.106201,-1.289551,1.267822
25:39.2,-0.119385,-1.249512,1.104004
25:39.2,-0.145508,-1.179443,0.94165
25:39.2,-0.187256,-1.095215,0.828369
25:39.2,-0.246338,-0.967529,0.709717
25:39.2,-0.303955,-0.813477,0.582031
25:39.2,-0.391602,-0.666504,0.469727
25:39.2,-0.478027,-0.540771,0.4375
25:39.2,-0.518066,-0.489014,0.494385
25:39.2,-0.622803,-0.471191,0.609375
25:39.2,-0.792969,-0.469971,0.683105
25:39.3,-0.983398,-0.476318,0.616699
25:39.3,-1.340332,-0.400635,0.565186
25:39.3,-1.872314,-0.207764,0.424561
25:39.3,-2.269287,0.009033,0.307373
25:39.3,-2.758057,0.202393,0.370605
25:39.3,-3.526367,0.58374,-0.005127
25:39.3,-4.260254,1.396729,-0.631104
25:39.3,-4.741943,3.977539,-1.35376
25:39.3,-5.540527,7.254639,-1.712158
25:39.3,-6.260986,7.999756,-1.593018
25:39.4,-5.760498,6.726074,-1.516846
25:39.4,-5.278076,3.68457,-1.138184
25:39.4,-6.689941,1.916992,-0.832031
25:39.4,-8,0.031006,-0.220947
25:39.4,-8,-1.80127,2.058105
25:39.4,-8,-3.725342,6.189941
25:39.4,-8,-6.831299,7.999756
25:39.4,-4.115967,-8,7.984375
25:39.4,3.790283,-8,7.999756
25:39.4,1.257568,-7.313965,6.378418
25:39.5,-2.528809,-3.368164,1.760742
25:39.5,-2.605225,-0.156982,0.749756
25:39.5,-1.741211,0.417725,1.6875
25:39.5,-0.833984,1.112061,2.55957
25:39.5,-0.533936,0.967773,2.141113
25:39.5,-0.568115,0.685547,1.430908
25:39.5,-0.670898,0.436523,0.621582
25:39.5,-0.519775,0.125977,0.045898
25:39.5,-0.208984,-0.006836,-0.125244
25:39.5,-0.024414,0.013428,-0.051025
25:39.6,0.081787,0.15625,0.103271
25:39.6,0.155273,0.31665,0.188721
25:39.6,0.157227,0.371582,0.158936
25:39.6,0.161377,0.402588,0.017578
25:39.6,0.193115,0.524414,-0.249756
25:39.6,0.139404,0.883301,-0.64624
25:39.6,-0.13501,1.631836,-1.416748
25:39.6,-0.348389,2.589111,-2.176025
25:39.6,-0.750977,3.031006,-2.369385
25:39.6,-1.102295,2.411865,-1.658447
25:39.7,-2.055908,1.640869,-0.356934
25:39.7,-3.423828,0.158203,1.669189
25:39.7,-4.493896,-3.02002,4.697266
25:39.7,-1.924805,-7.200439,7.311523
25:39.7,1.386719,-7.987793,6.437988
25:39.7,2.17749,-8,2.633545
25:39.7,1.400391,-8,0.220947
25:39.7,0.695557,-6.091797,0.223389
25:39.7,0.431885,-4.389893,0.900635
25:39.7,0.06543,-2.960205,1.162842
25:39.8,-0.170166,-1.956055,1.140625
25:39.8,-0.181152,-1.454346,0.925293
25:39.8,-0.142822,-1.211914,0.57666
25:39.8,-0.0354,-1.048096,0.268066
25:39.8,0.012695,-0.939941,0.117676
25:39.8,0.028076,-0.798096,0.131348
25:39.8,-0.021973,-0.634766,0.135498
25:39.8,-0.256104,-0.43042,0.130615
25:39.8,-0.560791,-0.279541,0.405762
25:39.8,-0.927734,-0.210449,0.772461
25:39.9,-1.555664,-0.120117,0.997314
25:39.9,-2.381104,-0.120605,0.948486
25:39.9,-3.051514,0.106689,0.805664
25:39.9,-3.507324,0.560059,0.518311
25:39.9,-3.893799,1.456787,-0.832275
25:39.9,-3.810059,4.452637,-2.227783
25:39.9,-3.88501,7.598877,-2.215332
25:39.9,-4.17041,7.999756,-1.74585
25:39.9,-4.365234,6.038086,-1.817383
25:39.9,-4.452148,3.314209,-1.714355
25:40.0,-5.463135,1.769043,-0.836426
25:40.0,-7.426025,0.344238,0.857422
25:40.0,-8,-2.312744,4.328369
25:40.0,-8,-6.51123,7.540039
25:40.0,-3.527832,-8,7.999756
25:40.0,5.329346,-8,7.999756
25:40.0,4.341309,-8,5.91333
25:40.0,-0.187012,-6.594727,1.750977
25:40.0,-1.172607,-2.455322,1.088135
25:40.0,-0.32251,-0.668701,1.61792
25:40.1,0.368652,-0.782227,1.334473
25:40.1,0.486084,-0.986084,0.624023
25:40.1,0.219238,-0.916504,0.075684
25:40.1,0.02002,-0.634033,0.117188
25:40.1,0.108887,-0.468506,0.204346
25:40.1,0.169434,-0.352295,0.067139
25:40.1,0.120361,-0.203857,-0.079102
25:40.1,-0.008789,-0.058594,-0.122803
25:40.1,-0.186279,0.072021,-0.101318
25:40.1,-0.330811,0.211182,-0.065186
25:40.2,-0.48877,0.335693,-0.073242
25:40.2,-0.669922,0.615234,-0.169922
25:40.2,-0.75708,1.131104,-0.358398
25:40.2,-0.876465,1.955811,-0.760986
25:40.2,-0.864014,2.804199,-1.182373
25:40.2,-0.628174,3.36084,-1.269775
25:40.2,-0.420166,3.139893,-1.216309
25:40.2,-0.345215,2.369629,-1.018555
25:40.2,-0.62207,1.500977,-0.544678
25:40.2,-1.400879,0.419678,0.406982
25:40.3,-2.292969,-1.587891,2.027832
25:40.3,-1.285645,-5.134033,4.051025
25:40.3,1.970459,-8,4.046143
25:40.3,3.501221,-7.916748,3.848145
25:40.3,2.373779,-5.931885,3.401611
25:40.3,0.85791,-3.63623,2.684326
25:40.3,0.34375,-1.765625,2.234375
25:40.3,0.145752,-0.660889,1.844238
25:40.3,0.002197,-0.438477,1.222168
25:40.3,0.05835,-0.570801,0.7146
25:40.4,0.084961,-0.586426,0.582275
25:40.4,-0.039551,-0.455811,0.59082
25:40.4,-0.204346,-0.342041,0.610352
25:40.4,-0.38501,-0.27124,0.589844
25:40.4,-0.570068,-0.269043,0.504883
25:40.4,-0.865479,-0.243408,0.407227
25:40.4,-1.265869,-0.102783,0.35791
25:40.4,-1.702148,0.133789,0.296631
25:40.4,-2.082031,0.445313,0.1875
25:40.4,-2.467285,0.921143,-0.141113
25:40.5,-2.725586,1.683838,-0.673584
25:40.5,-2.973633,3.40918,-1.485596
25:40.5,-3.156006,5.499512,-1.681641
25:40.5,-3.40332,6.303223,-1.668701
25:40.5,-3.351563,5.337402,-1.840088
25:40.5,-3.292969,3.80542,-1.805908
25:40.5,-3.845703,2.543457,-1.666016
25:40.5,-5.143311,1.152344,-0.902832
25:40.5,-6.892334,-0.079834,1.077393
25:40.5,-8,-2.330811,4.832764
25:40.6,-8,-6.710938,7.673584
25:40.6,0.139893,-8,7.999756
25:40.6,6.034424,-8,6.815674
25:40.6,2.564697,-8,3.769531
25:40.6,-0.558105,-5.362061,1.950195
25:40.6,-0.643311,-1.184814,1.992676
25:40.6,0.127686,-0.323486,2.210938
25:40.6,0.42334,-0.54126,1.61084
25:40.6,0.280518,-0.747803,1.001465
25:40.6,0.064453,-0.655762,0.744629
25:40.7,0.03418,-0.562744,0.608398
25:40.7,0.101563,-0.57959,0.413574
25:40.7,0.076904,-0.495117,0.240234
25:40.7,-0.069092,-0.342285,0.168213
25:40.7,-0.306885,-0.239502,0.192139
25:40.7,-0.623779,-0.184326,0.272949
25:40.7,-1.107666,-0.067139,0.177979
25:40.7,-1.615234,0.238281,-0.317383
25:40.7,-1.982666,1.055908,-1.297852
25:40.7,-2.265381,2.750488,-2.218506
25:40.8,-2.027344,4.491699,-2.168213
25:40.8,-1.601563,5.223877,-1.836914
25:40.8,-1.638428,4.815186,-1.873047
25:40.8,-1.971436,3.375977,-1.626709
25:40.8,-2.419189,1.846436,-0.945557
25:40.8,-3.591797,0.755859,0.492188
25:40.8,-5.052246,-1.353027,3.158936
25:40.8,-3.986572,-5.587891,7.06665
25:40.8,1.853271,-8,7.854736
25:40.8,5.125977,-8,5.425049
25:40.9,2.339111,-7.60083,3.611816
25:40.9,0.239258,-4.192871,1.950928
25:40.9,-0.124512,-1.516113,2.009766
25:40.9,0.03833,-0.656738,2.025146
25:40.9,0.180176,-0.742676,1.719482
25:40.9,0.105957,-0.842529,1.365479
25:40.9,-0.160889,-0.704346,1.053223
25:40.9,-0.3396,-0.520264,0.848145
25:40.9,-0.521973,-0.372803,0.715088
25:40.9,-0.719238,-0.40625,0.640381
25:41.0,-1.033936,-0.408447,0.519531
25:41.0,-1.558105,-0.26416,0.371582
25:41.0,-2.201904,0.049072,0.112305
25:41.0,-2.63501,0.356689,-0.019287
25:41.0,-3.13916,0.846436,-0.580078
25:41.0,-3.345947,1.730713,-1.456787
25:41.0,-3.384521,3.193604,-2.076904
25:41.0,-3.256836,4.574219,-2.078125
25:41.0,-3.453369,5.6875,-2.336182
25:41.0,-3.583008,5.557373,-2.416504
25:41.1,-3.637451,4.206787,-2.047363
25:41.1,-4.174561,2.721436,-1.652588
25:41.1,-4.919678,1.2854,-1.087158
25:41.1,-5.628174,0.10083,-0.14917
25:41.1,-6.798584,-0.602295,1.531738
25:41.1,-7.849365,-1.097168,3.374512
25:41.1,-8,-3.240723,6.322021
25:41.1,-7.689209,-7.151855,7.934082
25:41.1,0.602051,-8,7.999756
25:41.1,3.766602,-8,4.628418
25:41.2,1.724609,-7.84375,1.001221
25:41.2,0.357666,-5.682861,0.453369
25:41.2,-0.202881,-3.474365,1.076172
25:41.2,-0.462646,-1.799316,1.771729
25:41.2,-0.501953,-0.441406,1.883057
25:41.2,-0.391602,0.146973,1.596191
25:41.2,-0.218994,0.111328,1.171143
25:41.2,-0.066895,-0.035156,0.611572
25:41.2,0.07959,-0.135254,0.153809
25:41.2,0.284424,-0.241455,-0.093506
25:41.3,0.50293,-0.336426,-0.27417
25:41.3,0.591797,-0.324463,-0.411621
25:41.3,0.587402,-0.179688,-0.409424
25:41.3,0.556396,-0.031006,-0.329102
25:41.3,0.494629,0.12915,-0.260254
25:41.3,0.403564,0.346191,-0.222168
25:41.3,0.239746,0.648438,-0.233154
25:41.3,0.020508,1.068604,-0.320068
25:41.3,-0.232666,1.479004,-0.466064
25:41.3,-0.436279,1.651123,-0.459961
25:41.4,-0.688965,1.407227,-0.161133
25:41.4,-1.128906,0.748047,0.530762
25:41.4,-1.623047,-0.531738,1.666748
25:41.4,-1.035889,-2.681641,3.165771
25:41.4,1.233643,-4.977783,4.165771
25:41.4,2.515137,-6.423584,3.700439
25:41.4,2.315186,-6.585938,2.639648
25:41.4,1.090332,-4.9104,1.646484
25:41.4,-0.067871,-3.129883,1.147949
25:41.4,-0.445313,-1.916748,1.216797
25:41.5,-0.382324,-1.272705,1.400879
25:41.5,-0.319824,-0.875977,1.332031
25:41.5,-0.333008,-0.586914,1.109619
25:41.5,-0.362549,-0.395508,0.802002
25:41.5,-0.359619,-0.271729,0.506836
25:41.5,-0.355469,-0.188965,0.332275
25:41.5,-0.326416,-0.154541,0.275879
25:41.5,-0.349609,-0.19751,0.30249
25:41.5,-0.439941,-0.312744,0.366699
25:41.5,-0.71167,-0.464844,0.427246
25:41.6,-1.348389,-0.545898,0.463379
25:41.6,-2.292969,-0.412842,0.26123
25:41.6,-2.892822,-0.028809,0.217773
25:41.6,-3.506348,0.753906,-0.20459
25:41.6,-3.57251,1.88208,-0.787109
25:41.6,-3.220215,3.159912,-1.08252
25:41.6,-2.485352,4.28418,-1.102051
25:41.6,-2.28418,5.622559,-0.686523
25:41.6,-3.43335,6.135254,-0.821045
25:41.6,-3.47998,4.233887,-1.818604
25:41.7,-2.575684,2.303467,-1.599609
25:41.7,-2.646729,1.644775,-1.521973
25:41.7,-3.428711,1.348633,-0.89209
25:41.7,-6.77417,0.615723,0.483398
25:41.7,-8,-3.139893,4.974854
25:41.7,-7.760498,-7.397949,7.744629
25:41.7,-1.016113,-8,7.999756
25:41.7,4.542236,-8,7.873047
25:41.7,2.918945,-8,6.065674
25:41.7,0.293213,-4.842529,3.037598
25:41.8,-0.600586,-1.308838,1.489014
25:41.8,-0.138184,-0.209961,1.090332
25:41.8,0.389404,-0.370605,0.878906
25:41.8,0.456787,-0.550049,0.578125
25:41.8,0.269043,-0.409424,0.332764
25:41.8,0.1604,-0.26416,0.348389
25:41.8,0.186768,-0.184326,0.371338
25:41.8,0.263672,-0.129395,0.210693
25:41.8,0.332031,-0.081055,-0.012207
25:41.8,0.352783,-0.001709,-0.11377
25:41.9,0.336914,0.090088,-0.195557
25:41.9,0.2854,0.234619,-0.38208
25:41.9,0.171631,0.512939,-0.626465
25:41.9,0.000732,0.871094,-0.900146
25:41.9,-0.095703,1.159424,-1.042725
25:41.9,-0.086426,1.210449,-0.918701
25:41.9,-0.151367,1.069092,-0.606201
25:41.9,-0.37793,0.87793,-0.154297
25:41.9,-0.718994,0.446777,0.606445
25:41.9,-1.054932,-0.559814,1.965088
25:42.0,-0.443848,-2.36499,3.204834
25:42.0,1.29541,-4.351318,3.304688
25:42.0,2.47876,-5.41748,2.684814
25:42.0,2.322266,-5.248535,1.926025
25:42.0,1.218262,-3.905273,1.294434
25:42.0,0.345215,-2.286865,0.974365
25:42.0,0.053467,-1.250244,0.989502
25:42.0,0.021729,-0.687988,1.057617
25:42.0,0.007568,-0.349365,1.04248
25:42.0,0.055176,-0.20752,0.995605
25:42.1,-0.051758,-0.15332,0.912109
25:42.1,-0.349365,-0.083496,0.79126
25:42.1,0.118164,-0.224854,0.615723
25:42.1,-0.239258,-0.505615,0.602783
25:42.1,-0.578857,-0.476807,0.672363
25:42.1,-0.999023,-0.239258,0.599365
25:42.1,-1.53833,0.07959,0.425537
25:42.1,-1.836182,0.578613,-0.115967
25:42.1,-1.72876,0.976807,-0.160645
25:42.1,-1.913086,1.512939,-0.225098
25:42.2,-1.994385,2.306396,-0.891602
25:42.2,-2.005127,3.413818,-1.74707
25:42.2,-1.845703,4.662598,-2.262695
25:42.2,-2.057373,5.018066,-1.988281
25:42.2,-2.153076,4.14917,-2.371094
25:42.2,-1.890625,2.930908,-2.624756
25:42.2,-2.168945,1.953857,-2.35791
25:42.2,-3.270508,1.661865,-1.565674
25:42.2,-4.693604,1.171875,-0.137451
25:42.2,-6.015137,1.022949,2.20459
25:42.3,-7.576416,-0.603516,5.526367
25:42.3,-8,-4.990967,7.818604
25:42.3,0.977539,-7.785156,7.999756
25:42.3,2.790283,-8,6.944092
25:42.3,0.40918,-7.575684,4.30542
25:42.3,-0.782227,-3.540283,2.236084
25:42.3,-0.603516,-0.762695,1.858643
25:42.3,0.004639,0.026367,1.688965
25:42.3,0.400146,-0.160889,1.192383
25:42.3,0.34082,-0.363037,0.764893
25:42.4,0.251221,-0.509521,0.581787
25:42.4,0.253418,-0.607422,0.466309
25:42.4,0.367676,-0.658691,0.323242
25:42.4,0.451416,-0.64917,0.228271
25:42.4,0.447754,-0.515625,0.152588
25:42.4,0.366943,-0.314209,0.085938
25:42.4,0.273438,-0.116943,0.018311
25:42.4,0.232666,0.049072,-0.008057
25:42.4,0.178467,0.184326,-0.032959
25:42.4,0.149902,0.337891,-0.099854
25:42.5,0.110107,0.564453,-0.230713
25:42.5,0.039307,0.931152,-0.455078
25:42.5,-0.010986,1.411865,-0.80542
25:42.5,-0.010254,1.797607,-1.005127
25:42.5,0.012207,1.828613,-0.900879
25:42.5,-0.006104,1.460449,-0.531006
25:42.5,-0.139648,0.875244,-0.024414
25:42.5,-0.646484,0.11084,0.572754
25:42.5,-1.46167,-1.182373,1.316162
25:42.5,-1.017578,-2.675537,2.148438
25:42.6,0.390381,-4.439697,3.618896
25:42.6,1.603027,-6.00415,4.328125
25:42.6,2.38208,-5.913818,2.963379
25:42.6,1.73584,-4.457031,1.782471
25:42.6,0.605225,-2.483154,1.426758
25:42.6,-0.0979,-1.016357,1.146729
25:42.6,-0.181641,-0.371826,0.966309
25:42.6,0.020508,-0.263916,0.80835
25:42.6,0.122559,-0.426025,0.644043
25:42.6,0.159424,-0.488281,0.538086
25:42.7,0.078857,-0.382813,0.601807
25:42.7,-0.006348,-0.289795,0.704102
25:42.7,-0.085205,-0.267822,0.80957
25:42.7,-0.261719,-0.25,0.912598
25:42.7,-0.510498,-0.270264,0.940186
25:42.7,-0.908691,-0.23999,1.062744
25:42.7,-1.67041,0.072266,0.597412
25:42.7,-2.286621,0.604004,-1.248535
25:42.7,-1.123291,0.790771,-1.30542
25:42.7,-2.634277,3.732178,-2.351318
25:42.8,-2.726318,5.650879,-2.374268
25:42.8,-2.393799,5.849121,-1.633545
25:42.8,-2.349854,4.677002,-1.404541
25:42.8,-2.726807,2.876221,-1.477295
25:42.8,-3.165527,1.458984,-1.215088
25:42.8,-3.93335,0.583008,-0.299805
25:42.8,-4.965332,-0.333252,1.088623
25:42.8,-5.547852,-1.881348,3.625488
25:42.8,-5.579346,-5.187988,7.085205
25:42.8,0.226563,-7.969727,7.999756
25:42.9,2.405029,-8,4.944336
25:42.9,2.321533,-8,2.461914
25:42.9,1.236572,-6.989502,1.113037
25:42.9,0.348877,-5.003418,0.746826
25:42.9,-0.543701,-2.879395,0.73291
25:42.9,-0.763184,-1.136719,1.272705
25:42.9,-0.748047,-0.116699,1.510986
25:42.9,-0.542725,0.141602,1.187988
25:42.9,-0.275146,0.079102,0.788818
25:42.9,-0.072998,0.056641,0.570313
25:43.0,0.084717,-0.003662,0.424805
25:43.0,0.154785,-0.127197,0.304443
25:43.0,0.076904,-0.124512,0.240479
25:43.0,-0.147217,-0.012939,0.230225
25:43.0,-0.394287,0.0979,0.263428
25:43.0,-0.659424,0.259033,0.223389
25:43.0,-0.949707,0.584473,-0.074463
25:43.0,-1.351807,1.700195,-0.869873
25:43.0,-1.628418,3.407959,-1.925293
25:43.0,-1.474365,4.544434,-2.37915
25:43.1,-1.223389,4.37793,-2.194336
25:43.1,-1.18335,3.195557,-1.73584
25:43.1,-1.469238,1.974854,-1.197021
25:43.1,-2.162354,1.086914,-0.397705
25:43.1,-3.125244,0.337646,0.698242
25:43.1,-4.083252,-1.401367,3.30249
25:43.1,-2.31543,-5.672119,6.285156
25:43.1,2.330566,-8,6.144287
25:43.1,3.698975,-8,3.997314
25:43.1,1.499756,-7.063477,2.475098
25:43.2,-0.00708,-3.817383,1.627197
25:43.2,-0.335693,-1.430908,1.193115
25:43.2,-0.171143,-0.627686,1.103516
25:43.2,0.004883,-0.619385,1.161621
25:43.2,0.059082,-0.767822,1.124023
25:43.2,-0.05249,-0.718994,0.94751
25:43.2,-0.272461,-0.588135,0.773926
25:43.2,-0.452148,-0.459961,0.678711
25:43.2,-0.691406,-0.307617,0.602295
25:43.2,-1.036865,-0.089355,0.503418
25:43.3,-1.437744,0.190918,0.427979
25:43.3,-1.803223,0.489746,0.407715
25:43.3,-2.057617,0.88916,0.29126
25:43.3,-2.381592,1.761475,-0.432617
25:43.3,-2.637939,3.576172,-1.74585
25:43.3,-2.590576,5.682129,-2.343506
25:43.3,-2.658203,6.299561,-2.159668
25:43.3,-2.652344,5.085449,-2.128906
25:43.3,-2.693359,3.322754,-2.201172
25:43.3,-3.231201,1.818604,-1.831299
25:43.4,-4.128906,0.846924,-0.705078
25:43.4,-5.120361,0.418457,1.078369
25:43.4,-5.980469,-0.159912,3.068115
25:43.4,-6.500977,-2.347412,6.016113
25:43.4,-5.605957,-6.207764,7.999756
25:43.4,2.733154,-8,7.54126
25:43.4,2.611328,-8,3.019531
25:43.4,0.915283,-7.75415,1.5625
25:43.4,-0.134033,-4.036621,1.468994
25:43.4,-0.307373,-1.541992,1.388428
25:43.5,0.054688,-0.402832,1.396484
25:43.5,0.046631,-0.154297,0.962158
25:43.5,0.014893,-0.201904,0.55127
25:43.5,0.119629,-0.2771,0.428223
25:43.5,0.224854,-0.368896,0.278564
25:43.5,0.361816,-0.435791,0.088867
25:43.5,0.479004,-0.417236,0.063477
25:43.5,0.464355,-0.29248,0.05249
25:43.5,0.362305,-0.094971,-0.009277
25:43.5,0.266846,0.065918,-0.014893
25:43.6,0.184082,0.19165,-0.018066
25:43.6,0.158936,0.288086,-0.100586
25:43.6,0.051514,0.566406,-0.283691
25:43.6,-0.196777,1.194824,-0.601807
25:43.6,-0.330811,1.886475,-1.069824
25:43.6,-0.344727,2.416504,-1.447998
25:43.6,-0.407959,2.402588,-1.411621
25:43.6,-0.606201,1.830811,-1.044678
25:43.6,-1.009521,1.228516,-0.390137
25:43.6,-1.669922,0.639404,0.49707
25:43.7,-2.465332,-0.854736,2.495117
25:43.7,-1.677734,-3.692383,4.664551
25:43.7,1.426758,-6.569336,5.226807
25:43.7,2.968262,-8,4.189209
25:43.7,1.94458,-7.267578,2.572021
25:43.7,0.361084,-4.800293,1.534668
25:43.7,-0.451416,-2.510254,1.346436
25:43.7,-0.496582,-1.290527,1.434814
25:43.7,-0.327881,-0.727539,1.481934
25:43.7,-0.265381,-0.419434,1.348877
25:43.8,-0.23584,-0.311523,1.037109
25:43.8,-0.221436,-0.292236,0.701416
25:43.8,-0.234131,-0.27124,0.447266
25:43.8,-0.228271,-0.257568,0.402344
25:43.8,-0.278564,-0.244141,0.476074
25:43.8,-0.437988,-0.2229,0.519043
25:43.8,-0.705566,-0.189697,0.579834
25:43.8,-1.085938,-0.120361,0.685059
25:43.8,-1.628662,0.00708,0.672363
25:43.8,-2.171387,0.213867,0.536621
25:43.9,-2.585938,0.621094,0.247314
25:43.9,-3.10376,1.672363,-0.858398
25:43.9,-3.382568,3.807373,-2.254883
25:43.9,-3.013916,5.94043,-2.319336
25:43.9,-2.772705,6.501221,-1.830566
25:43.9,-2.948975,5.673096,-2.221924
25:43.9,-3.159912,4.040039,-2.412109
25:43.9,-4.158203,2.371094,-1.765137
25:43.9,-5.524414,1.048828,-0.507568
25:43.9,-6.819092,0.054932,1.282959
25:44.0,-8,-1.382324,4.509277
25:44.0,-6.865234,-5.146729,7.999756
25:44.0,-1.308838,-8,7.999756
25:44.0,3.381592,-8,7.257324
25:44.0,1.706055,-7.746826,2.864014
25:44.0,-0.050293,-5.307617,1.192139
25:44.0,-0.019531,-1.957764,1.981689
25:44.0,0.422852,-0.442383,2.337891
25:44.0,0.540283,-0.254639,1.694824
25:44.0,0.303955,-0.55957,0.835205
25:44.1,0.252441,-0.842041,0.503174
25:44.1,0.371094,-0.953857,0.497803
25:44.1,0.473389,-0.8125,0.47876
25:44.1,0.484619,-0.549072,0.351318
25:44.1,0.483154,-0.291504,0.168213
25:44.1,0.375977,-0.049316,0.01709
25:44.1,0.2854,0.176514,-0.119629
25:44.1,0.182129,0.458984,-0.2229
25:44.1,-0.000732,0.864502,-0.426758
25:44.1,-0.115479,1.279297,-0.724365
25:44.2,-0.168457,1.660889,-1.074463
25:44.2,-0.168457,1.70459,-1.232422
25:44.2,-0.198975,1.414551,-1.037598
25:44.2,-0.326904,0.942139,-0.53418
25:44.2,-0.602295,0.362793,0.236816
25:44.2,-0.874756,-0.681152,1.49292
25:44.2,-0.309814,-2.524414,2.937012
25:44.2,1.203125,-4.487549,3.294434
25:44.2,2.416748,-5.538574,3.508789
25:44.2,2.192871,-5.089355,3.513916
25:44.3,1.094238,-3.581543,2.983887
25:44.3,0.364258,-2.173096,2.482178
25:44.3,0.089111,-1.34375,2.117676
25:44.3,-0.096436,-0.948975,1.59668
25:44.3,-0.243652,-0.833008,1.064941
25:44.3,-0.322021,-0.765137,0.802979
25:44.3,-0.43042,-0.584717,0.699707
25:44.3,-0.600098,-0.347412,0.625977
25:44.3,-0.809326,-0.116943,0.60083
25:44.3,-1.035645,0.064697,0.579346
25:44.4,-1.217529,0.247314,0.490234
25:44.4,-1.401855,0.460693,0.389404
25:44.4,-1.643799,0.679199,0.306396
25:44.4,-2.00708,0.844971,0.119873
25:44.4,-2.370605,1.207764,-0.362549
25:44.4,-2.489014,2.072998,-1.144043
25:44.4,-2.521484,3.101318,-2.023193
25:44.4,-2.616699,4.036133,-2.496094
25:44.4,-2.821533,4.483154,-2.470703
25:44.4,-2.848389,4.005371,-2.265869
25:44.5,-2.760986,3.090576,-2.120605
25:44.5,-3.157715,2.353271,-2.168457
25:44.5,-4.117432,1.682617,-1.950928
25:44.5,-5.597656,0.919189,-0.459229
25:44.5,-7.182617,0.518311,2.175537
25:44.5,-8,0.393311,4.933838
25:44.5,-8,-0.960938,7.40625
25:44.5,-6.607666,-5.214111,7.999756
25:44.5,0.1521,-8,7.379883
25:44.5,3.574951,-8,3.107422
25:44.6,0.935791,-7.672119,-0.503662
25:44.6,-0.436035,-4.773926,1.151123
25:44.6,-0.949951,-0.791504,2.655029
25:44.6,-0.93457,0.867676,2.171387
25:44.6,-0.594727,0.70459,1.066406
25:44.6,-0.34375,0.133545,0.397217
25:44.6,0.050049,-0.512939,0.17627
25:44.6,0.41626,-0.7854,0.336426
25:44.6,0.611572,-0.696777,0.315186
25:44.6,0.606934,-0.383545,0.054688
25:44.7,0.55127,-0.086182,-0.165771
25:44.7,0.487061,0.118896,-0.303223
25:44.7,0.40625,0.329834,-0.365723
25:44.7,0.298828,0.50708,-0.354736
25:44.7,0.203369,0.667236,-0.289551
25:44.7,0.032715,0.981201,-0.229492
25:44.7,-0.119141,1.293213,-0.185059
25:44.7,-0.303223,1.358154,-0.155029
25:44.7,-0.546387,1.203369,-0.109375
25:44.7,-0.741455,0.888916,0.128418
25:44.8,-1.056396,0.376465,0.600098
25:44.8,-1.45752,-0.57666,1.362061
25:44.8,-1.101318,-2.284668,2.550049
25:44.8,0.880127,-4.150146,3.47876
25:44.8,2.053711,-5.53125,3.280762
25:44.8,2.119385,-5.983887,2.452637
25:44.8,1.293213,-4.984619,1.537598
25:44.8,0.369629,-3.524414,1.101074
25:44.8,-0.131104,-2.322754,1.012207
25:44.8,-0.276855,-1.518066,1.03833
25:44.9,-0.2771,-0.977295,1.073975
25:44.9,-0.233887,-0.577148,1.000244
25:44.9,-0.18457,-0.376953,0.825684
25:44.9,-0.147949,-0.273926,0.63916
25:44.9,-0.131836,-0.203125,0.52417
25:44.9,-0.098877,-0.156738,0.453613
25:44.9,-0.091553,-0.167725,0.402344
25:44.9,-0.137451,-0.237793,0.441162
25:44.9,-0.279541,-0.235107,0.502686
25:44.9,-0.52124,-0.231445,0.536377
25:45.0,-0.851563,-0.126465,0.531738
25:45.0,-1.320801,0.101074,0.378418
25:45.0,-1.740479,0.32666,0.233398
25:45.0,-1.956299,0.680908,-0.073486
25:45.0,-2.374268,1.742676,-1.354248
25:45.0,-2.663818,3.853027,-2.425781
25:45.0,-2.317383,5.436279,-2.149902
25:45.0,-2.059326,5.726318,-1.819336
25:45.0,-2.419922,4.846924,-2.236328
25:45.0,-3.047852,3.286621,-2.194092
25:45.1,-4.320068,1.997559,-1.193604
25:45.1,-6.086426,0.88208,0.546387
25:45.1,-7.304199,-1.719482,4.045654
25:45.1,-5.477051,-6.275146,7.391602
25:45.1,-0.160645,-8,7.618164
25:45.1,2.870605,-8,6.280273
25:45.1,1.571533,-7.583496,4.488281
25:45.1,0.138428,-4.80249,2.950684
25:45.1,0.077881,-1.73291,2.819092
25:45.1,0.403809,-0.594238,2.387695
25:45.2,0.49707,-0.677734,1.438965
25:45.2,0.40625,-0.94873,0.825684
25:45.2,0.283691,-0.955078,0.644531
25:45.2,0.30542,-0.875732,0.704346
25:45.2,0.365967,-0.753418,0.725586
25:45.2,0.390381,-0.592529,0.59082
25:45.2,0.317383,-0.385742,0.374023
25:45.2,0.19043,-0.208008,0.12793
25:45.2,0.029053,-0.074219,-0.016113
25:45.2,-0.154541,0.020264,-0.046143
25:45.3,-0.391602,0.182861,-0.139648
25:45.3,-0.631104,0.463623,-0.411133
25:45.3,-0.906738,1.162354,-1.112305
25:45.3,-1.089355,2.160889,-2.108887
25:45.3,-1.060059,3.007813,-2.510254
25:45.3,-0.882324,3.012451,-1.98877
25:45.3,-0.830566,2.234619,-1.410156
25:45.3,-1.013184,1.368408,-0.826416
25:45.3,-1.610352,0.730225,-0.173828
25:45.3,-2.525635,0.03833,0.736572
25:45.4,-2.980225,-1.630371,2.780273
25:45.4,-2.189697,-4.708984,5.133545
25:45.4,1.902588,-7.384277,5.399658
25:45.4,3.03833,-8,3.806641
25:45.4,1.745605,-6.980957,2.167969
25:45.4,0.29834,-4.449951,1.282471
25:45.4,-0.224854,-2.47168,1.379395
25:45.4,-0.258545,-1.2771,1.595215
25:45.4,-0.189941,-0.684814,1.603516
25:45.4,-0.066162,-0.444824,1.392334
25:45.5,0.006104,-0.367432,1.020996
25:45.5,0.03833,-0.331543,0.640625
25:45.5,0.083008,-0.329102,0.446533
25:45.5,0.126221,-0.317139,0.362549
25:45.5,0.093994,-0.297363,0.36084
25:45.5,0.059814,-0.308594,0.500488
25:45.5,-0.046875,-0.306641,0.713623
25:45.5,-0.312988,-0.350098,0.843506
25:45.5,-0.733154,-0.354492,0.88208
25:45.5,-1.325195,-0.349365,0.884521
25:45.6,-2.177246,-0.27124,0.696533
25:45.6,-2.89624,0.099121,0.401855
25:45.6,-3.63208,1.537354,-1.219238
25:45.6,-3.650391,4.981689,-2.761475
25:45.6,-3.025146,7.496094,-2.884033
25:45.6,-2.518311,7.045166,-2.742188
25:45.6,-2.988037,5.224854,-2.715332
25:45.6,-3.664063,3.006836,-1.786377
25:45.6,-4.461426,1.119385,-0.224609
25:45.6,-5.57959,0.508301,1.297607
25:45.7,-7.314941,-0.053955,2.978516
25:45.7,-7.95459,-3.648926,6.510742
25:45.7,-3.471924,-7.507568,7.999756
25:45.7,3.755859,-8,5.927734
25:45.7,4.372559,-8,1.495605
25:45.7,0.706787,-6.864014,0.916504
25:45.7,-0.365234,-3.290283,1.749756
25:45.7,-0.345703,-1.124756,1.560303
25:45.7,-0.029785,-0.482178,1.091797
25:45.7,0.088623,-0.452637,0.633545
25:45.8,0.079834,-0.725586,0.232666
25:45.8,0.272461,-0.91333,0.113037
25:45.8,0.319824,-0.884277,-0.002197
25:45.8,0.269287,-0.781982,-0.117188
25:45.8,0.235352,-0.625977,-0.09082
25:45.8,0.182129,-0.468018,0.025391
25:45.8,0.076172,-0.316406,0.138672
25:45.8,-0.088623,-0.194336,0.244141
25:45.8,-0.226318,-0.11084,0.273926
25:45.8,-0.487549,0.274658,0.028564
25:45.9,-1.182861,1.724609,-0.874756
25:45.9,-1.901123,3.947998,-2.111084
25:45.9,-2.012451,4.984619,-2.214111
25:45.9,-1.890137,3.583496,-1.664795
25:45.9,-1.8125,1.72998,-0.849365
25:45.9,-2.334229,0.641846,0.177246
25:45.9,-3.027344,-0.78833,1.709961
25:45.9,-2.531738,-3.944092,4.015625
25:45.9,0.563965,-6.718262,4.677734
25:45.9,3.121094,-8,4.928223
25:46.0,2.664795,-6.874268,4.101318
25:46.0,1.216309,-4.728271,2.776367
25:46.0,0.310547,-2.65625,1.736328
25:46.0,-0.061035,-1.523926,1.218018
25:46.0,-0.076904,-1.100342,0.800049
25:46.0,0.015869,-1.046387,0.530518
25:46.0,0.076172,-0.957275,0.408203
25:46.0,0.1521,-0.746094,0.37915
25:46.0,0.212646,-0.560791,0.261963
25:46.0,0.288818,-0.418457,0.104492
25:46.1,0.352783,-0.339355,0.063965
25:46.1,0.385742,-0.24585,0.061035
25:46.1,0.426758,-0.203613,0.06958
25:46.1,0.343018,-0.078613,0.13623
25:46.1,0.294678,0.081543,0.241699
25:46.1,0.328613,0.173096,0.341553
25:46.1,0.390869,0.226318,0.396729
25:46.1,0.490479,0.261963,0.397949
25:46.1,0.097656,0.13916,0.690674
25:46.1,0.513184,0.295166,0.581543
25:46.2,0.636475,0.268555,0.342041
25:46.2,0.529297,0.210938,0.400391
25:46.2,0.605713,0.178467,0.52832
25:46.2,0.65332,0.165527,0.556641
25:46.2,0.66748,0.196045,0.522461
25:46.2,0.747559,0.201416,0.521729
25:46.2,0.754883,0.166504,0.549561
25:46.2,0.72998,0.067139,0.535889
25:46.2,0.650635,0.128662,0.423096
25:46.2,0.456543,0.216309,0.332275
25:46.3,0.312012,0.272461,0.339844
25:46.3,0.180176,0.362061,0.335449
25:46.3,0.038818,0.452148,0.239746
25:46.3,-0.07959,0.567139,0.101074
25:46.3,-0.216309,0.685791,-0.056885
25:46.3,-0.338867,0.73999,-0.18042
25:46.3,-0.453857,0.769775,-0.25415
25:46.3,-0.562256,0.820068,-0.403564
25:46.3,-0.706543,0.897461,-0.56543
25:46.3,-0.909912,1.052246,-0.652832
25:46.4,-1.072754,1.232666,-0.758057
25:46.4,-1.164551,1.395264,-0.894531
25:46.4,-1.245361,1.563965,-0.983887
25:46.4,-1.354492,1.619141,-1.02124
25:46.4,-1.54248,1.54834,-1.099365
25:46.4,-1.97876,1.531494,-1.254883
25:46.4,-2.537598,1.712891,-1.328857
25:46.4,-2.967285,1.909912,-1.151611
25:46.4,-3.515137,1.698486,-0.918701
25:46.4,-4.536377,1.310303,-0.831299
25:46.5,-6.470703,1.03125,-0.244141
25:46.5,-8,0.631592,1.992188
25:46.5,-8,-0.332275,5.271729
25:46.5,-8,-3.524902,7.999756
25:46.5,-6.067139,-7.58374,7.999756
25:46.5,1.842773,-8,7.956787
25:46.5,0.359375,-7.803223,5.96167
25:46.5,-2.300537,-5.411377,1.685791
25:46.5,-2.124023,-1.310059,3.266113
25:46.5,-0.905273,-0.254883,4.796875
25:46.6,-0.349609,-1.181396,3.379883
25:46.6,-0.256104,-1.956787,2.208496
25:46.6,-0.179932,-2.302734,1.581055
25:46.6,-0.184082,-2.048096,1.505859
25:46.6,-0.1604,-1.640869,1.483887
25:46.6,-0.259277,-1.311035,1.240479
25:46.6,-0.348633,-1.016357,0.986572
25:46.6,-0.392578,-0.918457,0.887207
25:46.6,-0.437744,-0.874268,0.84375
25:46.6,-0.4375,-0.829102,0.919189
25:46.7,-0.438232,-0.76709,1.084717
25:46.7,-0.4104,-0.764893,1.268799
25:46.7,-0.335693,-0.779541,1.399414
25:46.7,-0.272705,-0.797607,1.412598
25:46.7,-0.221191,-0.77417,1.330078
25:46.7,-0.228271,-0.707031,1.20752
25:46.7,-0.272705,-0.571533,1.104736
25:46.7,-0.312012,-0.469971,1.088135
25:46.7,-0.286621,-0.410156,1.015381
25:46.7,-0.280273,-0.309082,0.864746
25:46.8,-0.284912,-0.211182,0.751709
25:46.8,-0.26001,-0.133789,0.618652
25:46.8,-0.224121,-0.043213,0.493408
25:46.8,-0.217285,0.037354,0.352539
25:46.8,-0.21875,0.115967,0.246338
25:46.8,-0.21875,0.186035,0.165283
25:46.8,-0.216309,0.219971,0.100098
25:46.8,-0.227295,0.270996,0.039307
25:46.8,-0.246094,0.339355,-0.02002
25:46.8,-0.253418,0.37793,-0.090088
25:46.9,-0.239502,0.421387,-0.178711
25:46.9,-0.235352,0.448975,-0.272705
25:46.9,-0.224365,0.464111,-0.370117
25:46.9,-0.217285,0.465576,-0.443848
25:46.9,-0.216309,0.482666,-0.505127
25:46.9,-0.232178,0.525635,-0.5625
25:46.9,-0.214111,0.516846,-0.5896
25:46.9,-0.212402,0.498535,-0.599609
25:46.9,-0.244141,0.491455,-0.627686
25:46.9,-0.29541,0.480469,-0.64624
25:47.0,-0.398193,0.491943,-0.628906
25:47.0,-0.489746,0.494385,-0.626709
25:47.0,-0.581787,0.516357,-0.678711
25:47.0,-0.719238,0.588867,-0.833496
25:47.0,-0.880859,0.752686,-1.081299
25:47.0,-1.214111,1.166504,-1.367188
25:47.0,-1.647705,1.732178,-1.489502
25:47.0,-2.032471,2.166504,-1.357178
25:47.0,-2.718018,2.18335,-1.128662
25:47.0,-3.948975,1.700928,-0.356201
25:47.1,-6.287842,1.236572,1.18457
25:47.1,-8,-0.470947,4.138184
25:47.1,-8,-5.099609,7.621338
25:47.1,-5.118652,-8,7.999756
25:47.1,2.875244,-8,7.107666
25:47.1,0.854736,-8,3.945557
25:47.1,-1.283447,-6.805664,3.668701
25:47.1,-1.666992,-2.143311,3.754395
25:47.1,-1.016357,-0.751709,3.043213
25:47.1,-0.476563,-0.981934,1.71167
25:47.2,-0.240234,-1.511719,1.157471
25:47.2,-0.161133,-1.811768,1.145508
25:47.2,-0.134521,-1.799072,1.031982
25:47.2,-0.278564,-1.452637,0.919678
25:47.2,-0.393799,-1.068848,0.907959
25:47.2,-0.446045,-0.782715,0.9646
25:47.2,-0.469727,-0.62085,1.042725
25:47.2,-0.451172,-0.574707,1.094238
25:47.2,-0.43335,-0.601318,1.043701
25:47.2,-0.368652,-0.728027,1.028076
25:47.3,-0.27832,-0.831543,0.96582
25:47.3,-0.265137,-0.859375,0.920898
25:47.3,-0.250244,-0.843994,0.875488
25:47.3,-0.219238,-0.798584,0.800293
25:47.3,-0.217529,-0.753174,0.71167
25:47.3,-0.245361,-0.709717,0.560547
25:47.3,-0.306396,-0.617432,0.435303
25:47.3,-0.336914,-0.588867,0.340576
25:47.3,-0.393799,-0.467773,0.258057
25:47.3,-0.467529,-0.430908,0.233643
25:47.4,-0.554443,-0.362793,0.250732
25:47.4,-0.667969,-0.279053,0.228516
25:47.4,-0.830078,-0.138428,0.184082
25:47.4,-0.999756,0.039795,0.141357
25:47.4,-1.166748,0.235352,0.084229
25:47.4,-1.364502,0.443848,-0.079102
25:47.4,-1.466064,0.679443,-0.25293
25:47.4,-1.465088,0.939941,-0.518066
25:47.4,-1.347412,1.267578,-0.83374
25:47.4,-1.296387,1.677979,-1.140625
25:47.5,-1.235352,2.10376,-1.263428
25:47.5,-1.074951,2.3125,-1.212402
25:47.5,-0.995605,2.286865,-1.100342
25:47.5,-1.051025,2.210693,-1.081299
25:47.5,-1.172607,2.158936,-1.076416
25:47.5,-1.429443,2.115967,-1.195557
25:47.5,-1.957275,2.096436,-1.252197
25:47.5,-2.893311,1.934326,-0.726074
25:47.5,-4.265869,1.398438,0.263916
25:47.5,-5.932861,0.863037,1.624756
25:47.6,-7.589355,-0.433838,3.968506
25:47.6,-8,-3.981689,7.084473
25:47.6,-4.439453,-7.451416,7.999756
25:47.6,1.574219,-8,6.899414
25:47.6,1.335938,-8,4.602783
25:47.6,-0.551514,-6.964844,3.379395
25:47.6,-1.273926,-3.414307,2.774658
25:47.6,-1.042236,-1.06958,2.68335
25:47.6,-0.675537,-0.644043,2.109863
25:47.6,-0.342041,-1.158203,1.488281
25:47.7,-0.153564,-1.772949,1.228516
25:47.7,-0.187256,-1.993896,1.080078
25:47.7,-0.245117,-1.844727,1.156494
25:47.7,-0.262451,-1.55542,1.24707
25:47.7,-0.322754,-1.217041,1.242432
25:47.7,-0.412842,-0.897217,1.184326
25:47.7,-0.498535,-0.682861,1.138184
25:47.7,-0.51709,-0.542725,1.094482
25:47.7,-0.465332,-0.48291,1.036133
25:47.7,-0.402588,-0.477295,0.931396
25:47.8,-0.36377,-0.470215,0.828369
25:47.8,-0.32666,-0.486328,0.760986
25:47.8,-0.26709,-0.48584,0.69165
25:47.8,-0.242432,-0.477539,0.577881
25:47.8,-0.235107,-0.42041,0.47168
25:47.8,-0.251221,-0.337646,0.356689
25:47.8,-0.251465,-0.244385,0.197266
25:47.8,-0.270752,-0.147705,0.050049
25:47.8,-0.301514,-0.029053,-0.049072
25:47.8,-0.312012,0.023193,-0.120117
25:47.9,-0.296875,0.050293,-0.158203
25:47.9,-0.314209,0.061523,-0.137695
25:47.9,-0.329102,0.026123,-0.107178
25:47.9,-0.3479,-0.052734,-0.09082
25:47.9,-0.474854,-0.158447,-0.011475
25:47.9,-0.719727,-0.187256,0.140625
25:47.9,-1.174561,-0.082275,0.140381
25:47.9,-1.601074,0.109131,0.164063
25:47.9,-1.983398,0.43042,-0.102051
25:47.9,-2.344727,0.933838,-0.664795
25:48.0,-2.521973,1.719971,-1.283447
25:48.0,-2.750244,3.648926,-1.826416
25:48.0,-2.526855,5.560059,-1.401367
25:48.0,-2.569092,6.042969,-1.313232
25:48.0,-3.481934,5.336426,-1.57959
25:48.0,-5.148193,3.554688,-1.590576
25:48.0,-7.644775,1.738281,-0.522949
25:48.0,-8,0.355469,2.13916
25:48.0,-8,-1.205078,5.667725
25:48.0,-8,-6.129395,7.775146
25:48.1,-1.985596,-8,7.999756
25:48.1,2.213867,-8,7.999756
25:48.1,-0.273682,-8,3.391357
25:48.1,-2.515381,-5.418945,1.440918
25:48.1,-1.783691,-1.656738,3.970459
25:48.1,-0.641602,-0.708984,4.143555
25:48.1,-0.348877,-1.449219,2.470703
25:48.1,-0.305176,-2.105713,1.362549
25:48.1,-0.320801,-2.35791,0.993164
25:48.1,-0.289551,-2.125,1.097168
25:48.2,-0.253418,-1.614502,1.151611
25:48.2,-0.336182,-1.119873,1.017578
25:48.2,-0.442383,-0.723389,0.891113
25:48.2,-0.492432,-0.49707,0.829346
25:48.2,-0.511963,-0.40332,0.785889
25:48.2,-0.521484,-0.330566,0.745605
25:48.2,-0.505371,-0.26709,0.720459
25:48.2,-0.464844,-0.228516,0.720459
25:48.2,-0.414307,-0.208984,0.755127
25:48.2,-0.328369,-0.235107,0.756836
25:48.3,-0.215332,-0.29126,0.724609
25:48.3,-0.090088,-0.332275,0.716309
25:48.3,-0.006836,-0.312012,0.677734
25:48.3,0.023438,-0.232666,0.620361
25:48.3,0.084229,-0.145752,0.594482
25:48.3,0.161377,-0.0896,0.608643
25:48.3,0.328125,-0.138672,0.655029
25:48.3,0.563477,-0.224365,0.609863
25:48.3,0.75708,-0.282227,0.526611
25:48.3,0.914063,-0.408447,0.530518
25:48.4,1.100342,-0.561279,0.557129
25:48.4,1.220459,-0.693359,0.617676
25:48.4,1.287354,-0.772461,0.737549
25:48.4,1.410645,-0.9021,0.885986
25:48.4,1.470947,-0.990723,0.927734
25:48.4,1.45459,-1.005127,0.874756
25:48.4,1.34668,-0.995605,0.810791
25:48.4,1.226318,-0.955078,0.776367
25:48.4,1.043945,-0.891357,0.778076
25:48.4,0.846436,-0.821289,0.733887
25:48.5,0.676758,-0.685791,0.636963
25:48.5,0.478027,-0.510498,0.566406
25:48.5,0.317627,-0.328125,0.518799
25:48.5,0.199219,-0.186035,0.42041
25:48.5,0.081055,-0.138672,0.296143
25:48.5,0.005127,-0.175781,0.175049
25:48.5,-0.121094,-0.223389,0.072754
25:48.5,-0.306152,-0.298828,0.045166
25:48.5,-0.520264,-0.312744,0.015137
25:48.5,-0.867676,-0.342041,-0.000244
25:48.6,-1.473389,-0.52124,0.061523
25:48.6,-2.657715,-0.773926,0.036377
25:48.6,-4.276367,-0.769287,-0.050049
25:48.6,-5.814697,0.026611,-0.459717
25:48.6,-6.354736,1.99292,-1.112549
25:48.6,-5.86377,7.038086,-1.56543
25:48.6,-6.136719,7.99585,-0.364502
25:48.6,-6.942139,7.999756,-0.09668
25:48.6,-7.170898,5.213623,-0.333496
25:48.6,-7.883301,2.236328,0.10498
25:48.7,-8,0.986328,-0.456299
25:48.7,-8,-1.398682,1.980957
25:48.7,-8,-5.917725,7.098633
25:48.7,-8,-7.923096,7.999756
25:48.7,-4.416504,-8,7.984375
25:48.7,-0.114258,-8,7.999756
25:48.7,-0.86377,-7.878418,6.479492
25:48.7,-2.095215,-3.896729,2.804443
25:48.7,-2.022705,-1.738525,1.838867
25:48.7,-1.006104,-1.248291,2.490967
25:48.8,-0.454346,-0.554199,2.903076
25:48.8,-0.679688,-0.031738,2.232178
25:48.8,-0.696289,-0.060547,0.879395
25:48.8,-0.457031,-0.371094,0.084717
25:48.8,-0.182373,-0.552734,0.169434
25:48.8,0.015137,-0.576172,0.388428
25:48.8,0.13501,-0.520264,0.378662
25:48.8,0.198975,-0.362549,0.316895
25:48.8,0.217041,-0.125977,0.297607
25:48.8,0.210449,0.099609,0.200684
25:48.9,0.205078,0.234375,-0.012207
25:48.9,0.233887,0.252197,-0.221436
25:48.9,0.277832,0.200195,-0.404785
25:48.9,0.212158,0.523193,-0.769531
25:48.9,0.076172,1.423828,-1.613525
25:48.9,0.045166,2.284424,-2.415283
25:48.9,-0.065918,2.539795,-2.347656
25:48.9,-0.421387,2.043701,-1.652344
25:48.9,-1.257813,1.33252,-0.812744
25:48.9,-2.873291,0.663574,0.277344
25:49.0,-4.849365,-1.400879,2.700928
25:49.0,-4.568359,-5.457275,5.850586
25:49.0,-0.751465,-8,6.59082
25:49.0,1.613525,-8,4.813721
25:49.0,1.195557,-8,1.686768
25:49.0,-0.074219,-7.154053,-0.092773
25:49.0,-0.563232,-4.998047,-0.032227
25:49.0,-0.524902,-3.550293,0.550537
25:49.0,-0.665283,-2.210693,0.876221
25:49.0,-0.791016,-1.329346,0.881348
25:49.1,-0.643311,-0.841309,0.954346
25:49.1,-0.429688,-0.644775,0.902344
25:49.1,-0.231934,-0.641602,0.612061
25:49.1,-0.05542,-0.698975,0.297852
25:49.1,0.070313,-0.740967,0.125244
25:49.1,0.130859,-0.719727,0.050293
25:49.1,0.101563,-0.544678,0.032471
25:49.1,0.019043,-0.290527,0.087402
25:49.1,-0.071289,-0.018066,0.188232
25:49.1,-0.129639,0.186035,0.373779
25:49.2,-0.174561,0.285645,0.506348
25:49.2,-0.220703,0.329102,0.578369
25:49.2,-0.312256,0.359131,0.53125
25:49.2,-0.493896,0.373535,0.486328
25:49.2,-0.672607,0.431152,0.414551
25:49.2,-0.959717,0.563965,0.21582
25:49.2,-1.206543,0.727295,0.133301
25:49.2,-1.423096,0.9104,0.095459
25:49.2,-1.822021,1.391357,-0.448242
25:49.2,-2.253418,3.053955,-1.586914
25:49.3,-2.165283,5.397705,-1.578369
25:49.3,-2.21875,6.535156,-1.368896
25:49.3,-2.532959,5.884033,-1.826172
25:49.3,-3.235352,4.120605,-2.007568
25:49.3,-4.331787,2.400146,-1.351318
25:49.3,-5.915039,1.010498,-0.310547
25:49.3,-7.7146,0.449951,1.615479
25:49.3,-8,-1.633057,5.741699
25:49.3,-8,-6.87207,7.876953
25:49.3,-0.517822,-8,7.999756
25:49.4,2.554199,-8,7.166992
25:49.4,-0.134521,-8,2.886475
25:49.4,-1.404053,-4.974609,0.957275
25:49.4,-0.780029,-1.671875,2.133057
25:49.4,-0.087158,-0.683594,2.49292
25:49.4,0.052979,-0.470947,1.655029
25:49.4,0.043701,-0.642334,0.682373
25:49.4,0.025635,-0.81665,0.132568
25:49.4,0.123291,-0.813232,0.144287
25:49.4,0.279785,-0.699463,0.245361
25:49.5,0.335205,-0.502441,0.168213
25:49.5,0.327637,-0.310791,0.060791
25:49.5,0.293945,-0.148193,0.001221
25:49.5,0.237793,-0.009033,-0.037109
25:49.5,0.162354,0.106934,-0.052734
25:49.5,0.099854,0.200195,-0.035645
25:49.5,0.044678,0.268311,-0.036377
25:49.5,0.005127,0.3125,-0.085938
25:49.5,-0.022217,0.38916,-0.150879
25:49.5,-0.04541,0.505371,-0.239502
25:49.6,-0.069092,0.7229,-0.478027
25:49.6,-0.176514,1.258057,-1.022949
25:49.6,-0.204346,1.956055,-1.576904
25:49.6,-0.190186,2.357422,-1.671631
25:49.6,-0.338867,2.15625,-1.359375
25:49.6,-0.71875,1.569824,-0.757813
25:49.6,-1.686279,0.94043,0.043701
25:49.6,-2.933838,-0.279297,1.598145
25:49.6,-3.194336,-3.092285,4.13501
25:49.6,-0.698486,-6.606201,5.854736
25:49.7,2.791016,-8,5.427979
25:49.7,2.249023,-7.827148,3.716064
25:49.7,0.395508,-5.998047,1.633545
25:49.7,-0.73877,-3.160889,0.620361
25:49.7,-0.811279,-1.569824,1.045654
25:49.7,-0.581543,-0.765381,1.42041
25:49.7,-0.363281,-0.398682,1.370361
25:49.7,-0.393066,-0.197998,1.026367
25:49.7,-0.404541,-0.125732,0.747314
25:49.7,-0.36792,-0.06543,0.566162
25:49.8,-0.322021,0.009521,0.476074
25:49.8,-0.294189,0.049561,0.487305
25:49.8,-0.303467,0.047607,0.53418
25:49.8,-0.451172,0.062988,0.546631
25:49.8,-0.700928,0.062012,0.531494
25:49.8,-1.083496,0.046875,0.562744
25:49.8,-1.598389,0.091309,0.609619
25:49.8,-2.178711,0.265381,0.521729
25:49.8,-2.565918,0.685303,0.391113
25:49.8,-2.885986,1.38501,-0.192383
25:49.9,-3.280029,3.244873,-1.810547
25:49.9,-2.96167,5.569092,-1.944824
25:49.9,-2.637207,6.755371,-1.181396
25:49.9,-2.896729,6.263428,-1.46875
25:49.9,-3.191406,4.533936,-1.931885
25:49.9,-3.603271,2.812012,-1.607666
25:49.9,-4.550537,1.578125,-0.65332
25:49.9,-6.061279,0.48877,0.421631
25:49.9,-7.46875,-0.090088,2.302734
25:49.9,-8,-1.838623,5.438965
25:50.0,-8,-6.476807,7.716797
25:50.0,0.210693,-8,7.999756
25:50.0,3.006592,-8,6.31958
25:50.0,0.799072,-8,1.819336
25:50.0,-0.469482,-5.0979,-0.050293
25:50.0,-0.421875,-2.25415,1.292236
25:50.0,0.092773,-1.043457,2.35791
25:50.0,0.289063,-0.579346,2.068848
25:50.0,0.182129,-0.620361,1.232178
25:50.0,0.11499,-0.775635,0.505615
25:50.1,0.189209,-0.862549,0.198486
25:50.1,0.325928,-0.848633,0.165039
25:50.1,0.423828,-0.681641,0.16333
25:50.1,0.448486,-0.43042,0.1521
25:50.1,0.432861,-0.194092,0.117432
25:50.1,0.371338,0.046875,0.079834
25:50.1,0.250732,0.378174,0.04248
25:50.1,0.093506,0.837891,-0.054688
25:50.1,-0.092041,1.268555,-0.192139
25:50.1,-0.317871,1.476563,-0.319336
25:50.2,-0.519043,1.344238,-0.306396
25:50.2,-0.748779,0.881104,-0.102051
25:50.2,-1.129639,0.228271,0.25293
25:50.2,-1.446533,-0.740479,1.00293
25:50.2,-1.120361,-2.245361,2.220703
25:50.2,0.154053,-4.060547,3.020752
25:50.2,1.328369,-5.539063,2.645264
25:50.2,1.458496,-6.01416,1.649902
25:50.2,0.952637,-5.346924,0.720459
25:50.2,0.166992,-4.145264,0.440674
25:50.3,-0.342285,-3.022461,0.736328
25:50.3,-0.630859,-2.137695,1.036377
25:50.3,-0.776855,-1.48291,1.177734
25:50.3,-0.868164,-0.969482,1.14624
25:50.3,-0.884766,-0.597412,1.038086
25:50.3,-0.884766,-0.32373,0.862793
25:50.3,-0.824707,-0.126465,0.728516
25:50.3,-0.771973,0.013428,0.81543
25:50.3,-0.817627,0.039551,0.982666
25:50.3,-1.010498,0.045654,0.994629
